time,seconds_elapsed,z,y,x
1763082719222603000,0.17960302734375,-0.008959770202636719,0.006395071744918823,-0.001679748296737671
1763082719227603000,0.18460302734375,-0.007674217224121094,-0.004262790083885193,-0.0015496239066123962
1763082719232603000,0.189602783203125,-0.004780769348144531,-0.004358023405075073,-0.009534277021884918
1763082719237603000,0.19460302734375,0.0017232894897460938,-0.004753917455673218,0.0020627230405807495
1763082719242603000,0.19960302734375,-0.0037975311279296875,0.0005110502243041992,0.005135752260684967
1763082719247603000,0.20460302734375,-0.00014591217041015625,-0.008687809109687805,0.005668714642524719
1763082719252603000,0.209602783203125,0.010784149169921875,-0.0029606521129608154,-0.0011954456567764282
1763082719257603000,0.21460302734375,-0.008256912231445312,-0.0026747435331344604,-0.003258354961872101
1763082719262603000,0.21960302734375,0.0037784576416015625,0.0045542046427726746,-0.006966017186641693
1763082719267603000,0.22460302734375,0.006541252136230469,-0.002053089439868927,-0.007891789078712463
1763082719272603000,0.229602783203125,0.0035858154296875,-0.001605704426765442,0.00611741840839386
1763082719277603000,0.23460302734375,-0.012460708618164062,0.0027352944016456604,-0.004492208361625671
1763082719282603000,0.23960302734375,-0.00730133056640625,-0.0007804706692695618,0.0011251792311668396
1763082719287603000,0.24460302734375,0.0028772354125976562,0.012366563081741333,-0.0009275227785110474
1763082719292603000,0.249602783203125,-0.0012102127075195312,-0.0030513331294059753,0.0012571141123771667
1763082719297603000,0.25460302734375,-0.008115768432617188,-0.0010127723217010498,0.0011460110545158386
1763082719302603000,0.25960302734375,0.0020017623901367188,-0.011204421520233154,0.002933405339717865
1763082719307603000,0.26460302734375,-0.0071926116943359375,0.005463466048240662,0.006228327751159668
1763082719312603000,0.269602783203125,0.003963470458984375,-0.008367620408535004,-0.0011746883392333984
1763082719317603000,0.27460302734375,-0.0005102157592773438,-0.0013410300016403198,-0.0069370269775390625
1763082719322603000,0.27960302734375,-0.00189971923828125,-0.002891749143600464,-0.0032865405082702637
1763082719327603000,0.28460302734375,0.0074405670166015625,0.0011866390705108643,-0.0022962242364883423
1763082719332603000,0.289602783203125,-0.0034303665161132812,0.0009219422936439514,0.00019101053476333618
1763082719337603000,0.29460302734375,0.0008516311645507812,0.004553355276584625,-0.0009991154074668884
1763082719342603000,0.29960302734375,-0.0049419403076171875,-0.0011336654424667358,-0.0005728155374526978
1763082719347603000,0.30460302734375,-0.0007762908935546875,-0.0024829134345054626,0.004552409052848816
1763082719352603000,0.309602783203125,0.0012254714965820312,-0.0016605556011199951,0.0007690861821174622
1763082719357603000,0.31460302734375,0.003753662109375,0.0019301846623420715,0.0017845705151557922
1763082719362603000,0.31960302734375,0.0034694671630859375,0.004228971898555756,0.007443375885486603
1763082719367603000,0.32460302734375,-0.011689186096191406,0.0006151273846626282,0.004403814673423767
1763082719372603000,0.329602783203125,-0.007890701293945312,-0.005200326442718506,0.004904493689537048
1763082719377603000,0.33460302734375,0.0022735595703125,-0.00452636182308197,0.00016348809003829956
1763082719382603000,0.33960302734375,-0.0008087158203125,0.004174627363681793,0.010137796401977539
1763082719387603000,0.34460302734375,0.005589485168457031,0.0054666996002197266,-0.0020811110734939575
1763082719392603000,0.349602783203125,0.0015134811401367188,0.005282260477542877,0.004217684268951416
1763082719397603000,0.35460302734375,-0.0011768341064453125,-0.007776431739330292,0.004193723201751709
1763082719402603000,0.35960302734375,-0.006554603576660156,-0.0014621317386627197,-0.008011158555746078
1763082719407603000,0.36460302734375,0.001605987548828125,-0.0037987753748893738,-0.003609728068113327
1763082719412603000,0.369602783203125,0.0015697479248046875,-0.009154237806797028,0.007757343351840973
1763082719417603000,0.37460302734375,0.004856109619140625,0.0021321848034858704,0.001703217625617981
1763082719422603000,0.37960302734375,0.0011234283447265625,0.003848828375339508,0.00021436065435409546
1763082719427603000,0.38460302734375,-0.003688812255859375,-0.006684832274913788,0.0012934580445289612
1763082719432603000,0.389602783203125,-0.005837440490722656,0.0030634403228759766,0.0007214993238449097
1763082719437603000,0.39460302734375,0.0025281906127929688,0.0036129727959632874,-0.0043008700013160706
1763082719442603000,0.39960302734375,-0.0031414031982421875,-0.006404876708984375,0.007825523614883423
1763082719447603000,0.40460302734375,-0.0022830963134765625,0.0000720098614692688,0.003231257200241089
1763082719452603000,0.409602783203125,-0.0077266693115234375,-0.00704570859670639,0.002162650227546692
1763082719457603000,0.41460302734375,-0.0064945220947265625,0.0009104907512664795,-0.0007589161396026611
1763082719462603000,0.41960302734375,-0.007191658020019531,0.004271358251571655,-0.0006386414170265198
1763082719467603000,0.42460302734375,-0.001617431640625,-0.006464555859565735,-0.00333462655544281
1763082719472603000,0.429602783203125,-0.00007915496826171875,-0.002395518124103546,-0.002219945192337036
1763082719477603000,0.43460302734375,-0.006812095642089844,-0.00014659762382507324,0.0017798170447349548
1763082719482603000,0.43960302734375,0.0088958740234375,-0.003462851047515869,-0.0021464675664901733
1763082719487603000,0.44460302734375,-0.010233879089355469,-0.005178466439247131,-0.0009447932243347168
1763082719492603000,0.449602783203125,-0.0018978118896484375,-0.0051133036613464355,0.0015589222311973572
1763082719497603000,0.45460302734375,0.0069751739501953125,0.0037828832864761353,0.004576146602630615
1763082719502603000,0.45960302734375,0.0032291412353515625,-0.00022130459547042847,0.0034628883004188538
1763082719507603000,0.46460302734375,-0.001468658447265625,-0.0040989890694618225,-0.0037536509335041046
1763082719512603000,0.469602783203125,-0.015454292297363281,0.002940848469734192,0.0000443384051322937
1763082719517603000,0.47460302734375,-0.007518768310546875,0.008373826742172241,-0.005314704030752182
1763082719522603000,0.47960302734375,-0.008732795715332031,-0.0042286217212677,-0.004763104021549225
1763082719527603000,0.48460302734375,-0.0025081634521484375,0.0061297789216041565,0.009041368961334229
1763082719532603000,0.489602783203125,-0.00522613525390625,0.0024420171976089478,-0.007073167711496353
1763082719537603000,0.49460302734375,0.0007228851318359375,-0.0003083720803260803,0.002432025969028473
1763082719542603000,0.49960302734375,-0.006886482238769531,-0.002513475716114044,0.0030002668499946594
1763082719547603000,0.50460302734375,-0.003589630126953125,0.005450412631034851,-0.0045226216316223145
1763082719552603000,0.509602783203125,-0.00276947021484375,0.002764590084552765,0.0022067762911319733
1763082719557603000,0.51460302734375,-0.011702537536621094,-0.0022154226899147034,0.0014825798571109772
1763082719562603000,0.51960302734375,-0.005107879638671875,0.007214628159999847,0.003385748714208603
1763082719567603000,0.52460302734375,-0.0012159347534179688,-0.004617936909198761,0.009072177112102509
1763082719572603000,0.529602783203125,-0.0009326934814453125,-0.009061135351657867,0.005302656441926956
1763082719577603000,0.53460302734375,-0.0039234161376953125,-0.004136793315410614,0.005667507648468018
1763082719582603000,0.53960302734375,-0.007704734802246094,-0.005675040185451508,0.010677006095647812
1763082719587603000,0.54460302734375,-0.008502960205078125,0.00014502555131912231,-0.002104084938764572
1763082719592603000,0.549602783203125,-0.005404472351074219,0.0034409239888191223,0.00030106306076049805
1763082719597603000,0.55460302734375,-0.014155387878417969,0.00517880916595459,0.015568997710943222
1763082719602603000,0.55960302734375,-0.0004787445068359375,0.002816148102283478,0.0029397793114185333
1763082719607603000,0.56460302734375,-0.0058727264404296875,-0.0020130202174186707,0.0027520470321178436
1763082719612603000,0.569602783203125,-0.015798568725585938,-0.004370652139186859,0.004151154309511185
1763082719617603000,0.57460302734375,-0.00794219970703125,0.006200142204761505,0.004719030112028122
1763082719622603000,0.57960302734375,-0.014231681823730469,-0.011958003044128418,-0.0017627999186515808
1763082719627603000,0.58460302734375,-0.017200469970703125,-0.0027962103486061096,0.009103301912546158
1763082719632603000,0.589602783203125,-0.008652687072753906,-0.0020777955651283264,0.006858006119728088
1763082719637603000,0.59460302734375,-0.02325153350830078,-0.005088701844215393,0.004737354815006256
1763082719642603000,0.59960302734375,-0.017665863037109375,-0.007281370460987091,0.0026818476617336273
1763082719647603000,0.60460302734375,-0.012450218200683594,0.002293609082698822,0.008231882005929947
1763082719652603000,0.609602783203125,-0.01985454559326172,0.00026075541973114014,0.0034170784056186676
1763082719657603000,0.61460302734375,-0.02277660369873047,-0.0032467544078826904,0.006275225430727005
1763082719662603000,0.61960302734375,-0.024234771728515625,-0.0030161291360855103,0.002379532903432846
1763082719667603000,0.62460302734375,-0.010441780090332031,-0.008725933730602264,0.003909572958946228
1763082719672603000,0.629602783203125,-0.006455421447753906,-0.004507675766944885,-0.00002148374915122986
1763082719677603000,0.63460302734375,-0.013895988464355469,0.0009889453649520874,0.006245825439691544
1763082719682603000,0.63960302734375,-0.01820087432861328,-0.0013175830245018005,-0.00007463991641998291
1763082719687603000,0.64460302734375,-0.016038894653320312,-0.007148183882236481,0.0029168426990509033
1763082719692603000,0.649602783203125,-0.012862205505371094,-0.005476593971252441,0.004204891622066498
1763082719697603000,0.65460302734375,-0.013657569885253906,0.0012758225202560425,0.012143496423959732
1763082719702603000,0.65960302734375,-0.025377273559570312,0.003185585141181946,-0.0026283301413059235
1763082719707603000,0.66460302734375,-0.01984882354736328,0.005909904837608337,0.00009601563215255737
1763082719712603000,0.669602783203125,-0.014246940612792969,0.009685829281806946,0.0063584595918655396
1763082719717603000,0.67460302734375,-0.0072479248046875,-0.00402522087097168,-0.004616744816303253
1763082719722603000,0.67960302734375,-0.032271385192871094,-0.004857949912548065,0.0007856376469135284
1763082719727603000,0.68460302734375,-0.030875205993652344,-0.004400946199893951,-0.005070529878139496
1763082719732603000,0.689602783203125,-0.018134117126464844,0.003342576324939728,0.002120744436979294
1763082719737603000,0.69460302734375,-0.02037811279296875,0.00154925137758255,0.0033081769943237305
1763082719742603000,0.69960302734375,-0.01688385009765625,0.0033912956714630127,0.008241560310125351
1763082719747603000,0.70460302734375,-0.022637367248535156,-0.005295604467391968,0.0025557391345500946
1763082719752603000,0.709602783203125,-0.024796485900878906,-0.007166825234889984,-0.0016743801534175873
1763082719757603000,0.71460302734375,-0.02850627899169922,0.003631591796875,-0.012954305857419968
1763082719762603000,0.71960302734375,-0.015367507934570312,0.0028257742524147034,0.0012027919292449951
1763082719767603000,0.72460302734375,-0.01917743682861328,-0.0010047033429145813,0.004833448678255081
1763082719772603000,0.729602783203125,-0.022226333618164062,-0.007865458726882935,-0.0032039955258369446
1763082719777603000,0.73460302734375,-0.019341468811035156,0.003849931061267853,-0.001922260969877243
1763082719782603000,0.73960302734375,-0.003082275390625,-0.0033213645219802856,0.0009564049541950226
1763082719787603000,0.74460302734375,-0.018944740295410156,-0.0057533010840415955,0.004127189517021179
1763082719792603000,0.749602783203125,-0.017774581909179688,0.007875405251979828,0.006039507687091827
1763082719797603000,0.75460302734375,-0.022985458374023438,0.004526890814304352,0.0012590624392032623
1763082719802603000,0.75960302734375,-0.03180217742919922,-0.005000516772270203,0.003336932510137558
1763082719807603000,0.76460302734375,-0.017621994018554688,0.006135888397693634,0.003182239830493927
1763082719812603000,0.769602783203125,-0.0078887939453125,-0.012976810336112976,0.0016147233545780182
1763082719817603000,0.77460302734375,-0.0071735382080078125,-0.0011614859104156494,0.013008542358875275
1763082719822603000,0.77960302734375,-0.013047218322753906,0.008736982941627502,-0.00043187662959098816
1763082719827603000,0.78460302734375,-0.01991748809814453,0.00011868774890899658,0.014192096889019012
1763082719832603000,0.789602783203125,-0.018256187438964844,0.00530899316072464,0.011835992336273193
1763082719837603000,0.79460302734375,-0.0067729949951171875,0.0021631866693496704,0.005532842129468918
1763082719842603000,0.79960302734375,-0.013689994812011719,-0.0038017258048057556,0.0033000633120536804
1763082719847603000,0.80460302734375,-0.02354907989501953,0.002166852355003357,0.0027348920702934265
1763082719852603000,0.809602783203125,-0.02100849151611328,-0.0014165416359901428,0.012364272028207779
1763082719857603000,0.81460302734375,-0.015475273132324219,0.002836570143699646,0.008875053375959396
1763082719862603000,0.81960302734375,-0.017642974853515625,-0.006714977324008942,-0.002010531723499298
1763082719867603000,0.82460302734375,-0.017782211303710938,-0.006950244307518005,0.010251376777887344
1763082719872603000,0.829602783203125,-0.02241992950439453,0.007160305976867676,0.007793255150318146
1763082719877603000,0.83460302734375,-0.02321624755859375,-0.0002849400043487549,0.006355199962854385
1763082719882603000,0.83960302734375,-0.01775836944580078,0.003322802484035492,0.010519728064537048
1763082719887603000,0.84460302734375,-0.014519691467285156,0.005253255367279053,-0.0025567859411239624
1763082719892603000,0.849602783203125,-0.028191566467285156,-0.0008487328886985779,0.00020709261298179626
1763082719897603000,0.85460302734375,-0.021170616149902344,0.001353718340396881,0.008517295122146606
1763082719902603000,0.85960302734375,-0.024725914001464844,-0.0026887208223342896,0.009262844920158386
1763082719907603000,0.86460302734375,-0.03551483154296875,0.0011418163776397705,0.00011045485734939575
1763082719912603000,0.869602783203125,-0.022078514099121094,-0.0006427466869354248,-0.00444021075963974
1763082719917603000,0.87460302734375,-0.016091346740722656,0.008047778159379959,0.0030821114778518677
1763082719922603000,0.87960302734375,-0.035498619079589844,-0.007657490670681,0.01131153479218483
1763082719927603000,0.88460302734375,-0.013411521911621094,-0.004206828773021698,0.000007424503564834595
1763082719932603000,0.889602783203125,-0.018831253051757812,-0.006190180778503418,-0.001536242663860321
1763082719937603000,0.89460302734375,-0.025366783142089844,-0.004846550524234772,0.012957651168107986
1763082719942603000,0.89960302734375,-0.027909278869628906,0.0033293962478637695,0.004317961633205414
1763082719947603000,0.90460302734375,-0.028258323669433594,0.007574014365673065,-0.004570998251438141
1763082719952603000,0.909602783203125,-0.03019237518310547,-0.0015133768320083618,0.000026263296604156494
1763082719957603000,0.91460302734375,-0.026456832885742188,0.00659777969121933,0.0006211064755916595
1763082719962603000,0.91960302734375,-0.025707244873046875,0.0025688037276268005,0.0024843886494636536
1763082719967603000,0.92460302734375,-0.0355224609375,-0.0070931315422058105,0.0019617564976215363
1763082719972603000,0.929602783203125,-0.03188037872314453,-0.0014859363436698914,-0.0024781562387943268
1763082719977603000,0.93460302734375,-0.01892566680908203,0.004343695938587189,0.016061484813690186
1763082719982603000,0.93960302734375,-0.02996063232421875,0.0038075074553489685,0.00603601336479187
1763082719987603000,0.94460302734375,-0.03857707977294922,-0.0016729235649108887,0.0057714954018592834
1763082719992603000,0.949602783203125,-0.030303955078125,-0.0007248073816299438,0.0076417140662670135
1763082719997603000,0.95460302734375,-0.024545669555664062,-0.001603342592716217,0.007332846522331238
1763082720002603000,0.95960302734375,-0.022391319274902344,0.0029906779527664185,0.00910612940788269
1763082720007603000,0.96460302734375,-0.022144317626953125,-0.0032181814312934875,-0.0002211444079875946
1763082720012603000,0.969602783203125,-0.017198562622070312,0.0016548410058021545,0.0027869120240211487
1763082720017603000,0.97460302734375,-0.036704063415527344,-0.004005067050457001,0.0033244267106056213
1763082720022603000,0.97960302734375,-0.012507438659667969,-0.00838594138622284,0.0035760849714279175
1763082720027603000,0.98460302734375,-0.022559165954589844,-0.00021395087242126465,0.001971963793039322
1763082720032603000,0.989602783203125,-0.028644561767578125,-0.0030560195446014404,0.011145424097776413
1763082720037603000,0.99460302734375,-0.016620635986328125,-0.006544262170791626,0.007672905921936035
1763082720042603000,0.99960302734375,-0.02259349822998047,-0.007612980902194977,0.005783155560493469
1763082720047603000,1.00460302734375,-0.02862071990966797,-0.00498325377702713,0.011863667517900467
1763082720052603000,1.009602783203125,-0.022368431091308594,0.002017967402935028,0.013782598078250885
1763082720057603000,1.01460302734375,-0.028151512145996094,0.008703716099262238,0.008255098015069962
1763082720062603000,1.01960302734375,-0.02756023406982422,-0.001149103045463562,0.010473739355802536
1763082720067603000,1.02460302734375,-0.02881145477294922,-0.006616950035095215,0.008961543440818787
1763082720072603000,1.029602783203125,-0.029354095458984375,-0.0006041005253791809,0.005729265511035919
1763082720077603000,1.03460302734375,-0.03590965270996094,0.0006755068898200989,0.007134519517421722
1763082720082603000,1.03960302734375,-0.019249916076660156,0.004190027713775635,0.00502430647611618
1763082720087603000,1.04460302734375,-0.030310630798339844,-0.00298435240983963,0.009232152253389359
1763082720092603000,1.049602783203125,-0.03246307373046875,-0.0029331818222999573,0.004975598305463791
1763082720097603000,1.05460302734375,-0.030384063720703125,-0.0041828453540802,0.01349937915802002
1763082720102603000,1.05960302734375,-0.027576446533203125,0.0015456974506378174,0.007160346955060959
1763082720107603000,1.06460302734375,-0.015718460083007812,-0.0058126673102378845,0.0036710165441036224
1763082720112603000,1.069602783203125,-0.039269447326660156,0.0020039454102516174,0.008436053991317749
1763082720117603000,1.07460302734375,-0.02472686767578125,0.00007387250661849976,0.004540968686342239
1763082720122603000,1.07960302734375,-0.02120685577392578,-0.0027176663279533386,0.011307790875434875
1763082720127603000,1.08460302734375,-0.021361351013183594,-0.004716366529464722,0.005745980888605118
1763082720132603000,1.089602783203125,-0.018659591674804688,-0.0037399306893348694,-0.00035210326313972473
1763082720137603000,1.09460302734375,-0.01744365692138672,-0.005588039755821228,-0.0003499723970890045
1763082720142603000,1.09960302734375,-0.022047042846679688,0.003111995756626129,0.006225612014532089
1763082720147603000,1.10460302734375,-0.0354766845703125,-0.004905492067337036,0.000027280300855636597
1763082720152603000,1.109602783203125,-0.015241622924804688,-0.00260799378156662,0.004306044429540634
1763082720157603000,1.11460302734375,-0.02323436737060547,-0.00047644972801208496,-0.0037058331072330475
1763082720162603000,1.11960302734375,-0.010186195373535156,-0.002185814082622528,0.0035037025809288025
1763082720167603000,1.12460302734375,-0.02982616424560547,-0.0015483498573303223,0.007036551833152771
1763082720172603000,1.129602783203125,-0.023955345153808594,-0.006121024489402771,0.002489142119884491
1763082720177603000,1.13460302734375,-0.02239513397216797,-0.001692935824394226,0.0028905831277370453
1763082720182603000,1.13960302734375,-0.026376724243164062,0.002785228192806244,0.00099959596991539
1763082720187603000,1.14460302734375,-0.02197551727294922,-0.001701951026916504,0.0015375837683677673
1763082720192603000,1.149602783203125,-0.018334388732910156,0.006517082452774048,0.005771692842245102
1763082720197603000,1.15460302734375,-0.02895641326904297,0.0023632794618606567,0.013001266866922379
1763082720202603000,1.15960302734375,-0.026246070861816406,-0.00768645852804184,0.01103270798921585
1763082720207603000,1.16460302734375,-0.021379470825195312,0.003019377589225769,0.009239878505468369
1763082720212603000,1.169602783203125,-0.02067089080810547,-0.008865684270858765,-0.0032960139214992523
1763082720217603000,1.17460302734375,-0.017678260803222656,-0.00546109676361084,0.005158640444278717
1763082720222603000,1.17960302734375,-0.024979591369628906,-0.0024636611342430115,0.000011213123798370361
1763082720227603000,1.18460302734375,-0.013701438903808594,0.007468871772289276,0.014689687639474869
1763082720232603000,1.189602783203125,-0.03003692626953125,-0.005817331373691559,0.004802368581295013
1763082720237603000,1.19460302734375,-0.020239830017089844,0.004854917526245117,0.004451185464859009
1763082720242603000,1.19960302734375,-0.022684097290039062,0.00002514570951461792,0.0037517286837100983
1763082720247603000,1.20460302734375,-0.034216880798339844,-0.0060164108872413635,0.006172832101583481
1763082720252603000,1.209602783203125,-0.01671600341796875,-0.007924780249595642,0.012452758848667145
1763082720257603000,1.21460302734375,-0.018892288208007812,0.006890535354614258,0.007798038423061371
1763082720262603000,1.21960302734375,-0.028206825256347656,-0.0020594000816345215,0.0018634945154190063
1763082720267603000,1.22460302734375,-0.02023029327392578,-0.008568711578845978,0.0049163103103637695
1763082720272603000,1.229602783203125,-0.027815818786621094,0.0024622753262519836,0.0037847869098186493
1763082720277603000,1.23460302734375,-0.02214527130126953,-0.0005459189414978027,0.009194616228342056
1763082720282603000,1.23960302734375,-0.014111518859863281,-0.003511004149913788,0.014873974025249481
1763082720287603000,1.24460302734375,-0.023313522338867188,-0.0052513182163238525,0.003726620227098465
1763082720292603000,1.249602783203125,-0.022774696350097656,0.005093500018119812,0.0009821802377700806
1763082720297603000,1.25460302734375,-0.019145965576171875,0.006238870322704315,0.013505902141332626
1763082720302603000,1.25960302734375,-0.017824172973632812,0.007806450128555298,0.008739303797483444
1763082720307603000,1.26460302734375,-0.022521018981933594,-0.006492480635643005,0.0027788691222667694
1763082720312603000,1.269602783203125,-0.02112293243408203,-0.01056738942861557,0.003392264246940613
1763082720317603000,1.27460302734375,-0.01256561279296875,0.0007497817277908325,0.0017066672444343567
1763082720322603000,1.27960302734375,-0.02495574951171875,-0.0004269257187843323,0.011803317815065384
1763082720327603000,1.28460302734375,-0.030081748962402344,0.0025952011346817017,0.00459728017449379
1763082720332603000,1.289602783203125,-0.01569652557373047,0.0008164346218109131,0.0023081935942173004
1763082720337603000,1.29460302734375,-0.028181076049804688,0.007076457142829895,0.0034399591386318207
1763082720342603000,1.29960302734375,-0.026292800903320312,0.00799320638179779,0.004860110580921173
1763082720347603000,1.30460302734375,-0.02175140380859375,-0.0008375048637390137,-0.0014038383960723877
1763082720352603000,1.309602783203125,-0.01512908935546875,-0.0033392831683158875,0.0006729550659656525
1763082720357603000,1.31460302734375,-0.025536537170410156,-0.0006377995014190674,0.012806754559278488
1763082720362603000,1.31960302734375,-0.023777008056640625,0.0011437833309173584,-0.0007197745144367218
1763082720367603000,1.32460302734375,-0.014692306518554688,0.006526492536067963,-0.0010613538324832916
1763082720372603000,1.329602783203125,-0.01873779296875,0.005325391888618469,0.012928389012813568
1763082720377603000,1.33460302734375,-0.018507003784179688,-0.006797216832637787,0.00852484256029129
1763082720382603000,1.33960302734375,-0.015297889709472656,0.0019444674253463745,0.012189719825983047
1763082720387603000,1.34460302734375,-0.020246505737304688,-0.006050504744052887,0.007597338408231735
1763082720392603000,1.349602783203125,-0.013864517211914062,0.0023157894611358643,0.007436487823724747
1763082720397603000,1.35460302734375,-0.016930580139160156,-0.0028886422514915466,0.005113054066896439
1763082720402603000,1.35960302734375,-0.023614883422851562,0.00678069144487381,0.0064420998096466064
1763082720407603000,1.36460302734375,-0.017180442810058594,-0.004176609218120575,0.011141911149024963
1763082720412603000,1.369602783203125,-0.023499488830566406,-0.000045806169509887695,0.00975598394870758
1763082720417603000,1.37460302734375,-0.021063804626464844,-0.0035087987780570984,0.0020264536142349243
1763082720422603000,1.37960302734375,-0.02471637725830078,0.0084296353161335,0.0037231184542179108
1763082720427603000,1.38460302734375,-0.007320404052734375,0.004917792975902557,0.01176878809928894
1763082720432603000,1.389602783203125,-0.014681816101074219,-0.0019621625542640686,0.005444280803203583
1763082720437603000,1.39460302734375,-0.02593231201171875,-0.006642676889896393,0.014509294182062149
1763082720442603000,1.39960302734375,-0.03333091735839844,-0.0036484599113464355,0.0180305615067482
1763082720447603000,1.40460302734375,-0.026561737060546875,-0.0041719526052474976,0.011939838528633118
1763082720452603000,1.409602783203125,-0.020501136779785156,-0.000005766749382019043,0.003931555896997452
1763082720457603000,1.41460302734375,-0.02823352813720703,-0.003595001995563507,0.0034165196120738983
1763082720462603000,1.41960302734375,-0.013021469116210938,-0.0021743401885032654,0.01313399150967598
1763082720467603000,1.42460302734375,-0.022266387939453125,0.005248866975307465,0.00940590351819992
1763082720472603000,1.429602783203125,-0.020575523376464844,0.00038530677556991577,0.014583978801965714
1763082720477603000,1.43460302734375,-0.028122901916503906,-0.002333343029022217,0.0035227760672569275
1763082720482603000,1.43960302734375,-0.027365684509277344,-0.004399590194225311,0.004029005765914917
1763082720487603000,1.44460302734375,-0.021482467651367188,0.0025063008069992065,0.004661731421947479
1763082720492603000,1.449602783203125,-0.025300025939941406,0.0045851245522499084,0.007707592099905014
1763082720497603000,1.45460302734375,-0.020119667053222656,0.0010835304856300354,0.013132564723491669
1763082720502603000,1.45960302734375,-0.0238494873046875,-0.012596681714057922,-0.0041195303201675415
1763082720507603000,1.46460302734375,-0.017688751220703125,-0.003027774393558502,0.007788904011249542
1763082720512603000,1.469602783203125,-0.027025222778320312,0.0054649487137794495,0.010400157421827316
1763082720517603000,1.47460302734375,-0.02597332000732422,-0.005991555750370026,0.008350960910320282
1763082720522603000,1.47960302734375,-0.028229713439941406,-0.003734596073627472,0.010204408317804337
1763082720527603000,1.48460302734375,-0.016180992126464844,-0.0024665221571922302,0.004716064780950546
1763082720532603000,1.489602783203125,-0.026185035705566406,0.007637575268745422,0.007703710347414017
1763082720537603000,1.49460302734375,-0.035284996032714844,-0.0017909854650497437,0.0038869716227054596
1763082720542603000,1.49960302734375,-0.02375030517578125,0.0029249489307403564,-0.008913975208997726
1763082720547603000,1.50460302734375,-0.020769119262695312,-0.005748733878135681,0.003988869488239288
1763082720552603000,1.509602783203125,-0.02706623077392578,-0.000017374753952026367,0.005278848111629486
1763082720557603000,1.51460302734375,-0.026371002197265625,0.0018457546830177307,0.014864731580018997
1763082720562603000,1.51960302734375,-0.030277252197265625,0.0012999549508094788,0.010655581951141357
1763082720567603000,1.52460302734375,-0.028112411499023438,-0.0015795081853866577,-0.0004742816090583801
1763082720572603000,1.529602783203125,-0.017780303955078125,0.00045993924140930176,0.014301203191280365
1763082720577603000,1.53460302734375,-0.020769119262695312,0.003244653344154358,0.013691913336515427
1763082720582603000,1.53960302734375,-0.026467323303222656,-0.00391668826341629,0.0032129213213920593
1763082720587603000,1.54460302734375,-0.023099899291992188,-0.008059553802013397,0.00965900719165802
1763082720592603000,1.549602783203125,-0.024010658264160156,-0.0008864477276802063,0.011317212134599686
1763082720597603000,1.55460302734375,-0.018151283264160156,-0.004606768488883972,0.009999934583902359
1763082720602603000,1.55960302734375,-0.029249191284179688,-0.0014379769563674927,0.004771120846271515
1763082720607603000,1.56460302734375,-0.023517608642578125,-0.005676247179508209,0.01383775845170021
1763082720612603000,1.569602783203125,-0.023378372192382812,-0.004313178360462189,0.011813852936029434
1763082720617603000,1.57460302734375,-0.035971641540527344,-0.009775951504707336,0.005810845643281937
1763082720622603000,1.57960302734375,-0.027144432067871094,-0.002911202609539032,0.0237438902258873
1763082720627603000,1.58460302734375,-0.02702045440673828,0.002422630786895752,0.004505623131990433
1763082720632603000,1.589602783203125,-0.025483131408691406,-0.003071323037147522,0.009443648159503937
1763082720637603000,1.59460302734375,-0.02508068084716797,-0.009287722408771515,0.00515308603644371
1763082720642603000,1.59960302734375,-0.013381004333496094,-0.0009465292096138,0.00043699517846107483
1763082720647603000,1.60460302734375,-0.022626876831054688,0.0034420862793922424,-0.0011643730103969574
1763082720652603000,1.609602783203125,-0.02036571502685547,-0.00650130957365036,0.009488869458436966
1763082720657603000,1.61460302734375,-0.026666641235351562,-0.002215959131717682,0.013102330267429352
1763082720662603000,1.61960302734375,-0.018691062927246094,-0.002959728240966797,0.004815567284822464
1763082720667603000,1.62460302734375,-0.027120590209960938,0.006094247102737427,0.0012878254055976868
1763082720672603000,1.629602783203125,-0.024690628051757812,-0.005880177021026611,0.00758015364408493
1763082720677603000,1.63460302734375,-0.02618408203125,0.004194207489490509,0.005805209279060364
1763082720682603000,1.63960302734375,-0.025368690490722656,0.0006476268172264099,0.005883213132619858
1763082720687603000,1.64460302734375,-0.023392677307128906,0.0017562955617904663,-0.002217203378677368
1763082720692603000,1.649602783203125,-0.01904010772705078,-0.010836824774742126,0.00904775783419609
1763082720697603000,1.65460302734375,-0.025943756103515625,0.009577997028827667,0.009097594767808914
1763082720702603000,1.65960302734375,-0.019354820251464844,0.009580887854099274,0.008884146809577942
1763082720707603000,1.66460302734375,-0.021623611450195312,0.003998957574367523,0.011255070567131042
1763082720712603000,1.669602783203125,-0.02523040771484375,0.00027202069759368896,0.009334143251180649
1763082720717603000,1.67460302734375,-0.01864147186279297,0.009826019406318665,0.014469966292381287
1763082720722603000,1.67960302734375,-0.01849365234375,-0.00013337284326553345,0.0014718659222126007
1763082720727603000,1.68460302734375,-0.0230712890625,0.002730153501033783,0.001887146383523941
1763082720732603000,1.689602783203125,-0.026592254638671875,-0.002953357994556427,0.012046895921230316
1763082720737603000,1.69460302734375,-0.0170440673828125,-0.0064948126673698425,0.007446072995662689
1763082720742603000,1.69960302734375,-0.0148773193359375,0.00042995065450668335,0.0010381601750850677
1763082720747603000,1.70460302734375,-0.010399818420410156,-0.0018279403448104858,0.0010024569928646088
1763082720752603000,1.709602783203125,-0.018474578857421875,-0.005630098283290863,0.0030680708587169647
1763082720757603000,1.71460302734375,-0.02324199676513672,-0.001205839216709137,0.009389318525791168
1763082720762603000,1.71960302734375,-0.02144145965576172,0.0027427300810813904,0.0029108040034770966
1763082720767603000,1.72460302734375,-0.01651477813720703,0.002541564404964447,0.0030036531388759613
1763082720772603000,1.729602783203125,-0.010146141052246094,0.002264678478240967,-0.002323061227798462
1763082720777603000,1.73460302734375,-0.011402130126953125,-0.00039651989936828613,0.005258031189441681
1763082720782603000,1.73960302734375,-0.021387100219726562,0.001788027584552765,0.011917948722839355
1763082720787603000,1.74460302734375,-0.018232345581054688,-0.00043513625860214233,0.007104750722646713
1763082720792603000,1.749602783203125,-0.01589202880859375,-0.005121171474456787,0.006408896297216415
1763082720797603000,1.75460302734375,-0.024663925170898438,0.0002473294734954834,0.0006692074239253998
1763082720802603000,1.75960302734375,-0.011397361755371094,-0.0038802996277809143,0.011314302682876587
1763082720807603000,1.76460302734375,-0.007794380187988281,0.005324043333530426,0.004614818841218948
1763082720812603000,1.769602783203125,-0.012262344360351562,0.0018312186002731323,-0.0018068663775920868
1763082720817603000,1.77460302734375,-0.020732879638671875,0.005224123597145081,0.007474377751350403
1763082720822603000,1.77960302734375,-0.007476806640625,-0.0012483224272727966,0.0015437938272953033
1763082720827603000,1.78460302734375,-0.010160446166992188,-0.0033851712942123413,-0.0016229227185249329
1763082720832603000,1.789602783203125,-0.013791084289550781,0.004739142954349518,0.009400393813848495
1763082720837603000,1.79460302734375,-0.0202178955078125,0.0014907792210578918,0.003064766526222229
1763082720842603000,1.79960302734375,-0.021104812622070312,0.003119267523288727,0.00718274712562561
1763082720847603000,1.80460302734375,-0.012227058410644531,0.005576275289058685,0.005860146135091782
1763082720852603000,1.809602783203125,-0.013835906982421875,0.0012144967913627625,0.012189347296953201
1763082720857603000,1.81460302734375,-0.017838478088378906,0.007591374218463898,0.008341476321220398
1763082720862603000,1.81960302734375,-0.014156341552734375,-0.0010187923908233643,0.0008321031928062439
1763082720867603000,1.82460302734375,-0.016134262084960938,-0.0007738098502159119,0.012970708310604095
1763082720872603000,1.829602783203125,-0.014080047607421875,0.002756267786026001,0.015451621264219284
1763082720877603000,1.83460302734375,-0.017120361328125,0.005522333085536957,0.007502205669879913
1763082720882603000,1.83960302734375,-0.012052536010742188,0.0012003779411315918,0.011599414050579071
1763082720887603000,1.84460302734375,-0.020308494567871094,0.0012882351875305176,-0.0011264719069004059
1763082720892603000,1.849602783203125,-0.012392044067382812,0.004989735782146454,0.005938664078712463
1763082720897603000,1.85460302734375,-0.0075931549072265625,-0.00008488446474075317,0.005074746906757355
1763082720902603000,1.85960302734375,-0.016035079956054688,0.006652675569057465,0.0056471675634384155
1763082720907603000,1.86460302734375,-0.0183258056640625,-0.0012898072600364685,-0.001582365483045578
1763082720912603000,1.869602783203125,-0.011745452880859375,-0.000013865530490875244,0.005653873085975647
1763082720917603000,1.87460302734375,-0.015173912048339844,-0.00003446638584136963,0.00512285903096199
1763082720922603000,1.87960302734375,-0.010883331298828125,0.0051073431968688965,0.00814272090792656
1763082720927603000,1.88460302734375,-0.017287254333496094,-0.007017157971858978,0.010902822017669678
1763082720932603000,1.889602783203125,-0.008322715759277344,-0.007446371018886566,0.007047455757856369
1763082720937603000,1.89460302734375,-0.014211654663085938,-0.007079765200614929,0.010638628154993057
1763082720942603000,1.89960302734375,-0.0073642730712890625,-0.0070169344544410706,0.005380671471357346
1763082720947603000,1.90460302734375,-0.013266563415527344,0.003902032971382141,0.00568569079041481
1763082720952603000,1.909602783203125,-0.009128570556640625,0.0021279454231262207,0.007914979010820389
1763082720957603000,1.91460302734375,-0.0008440017700195312,-0.008517071604728699,0.00844169408082962
1763082720962603000,1.91960302734375,-0.01609516143798828,0.00018703192472457886,0.0038882605731487274
1763082720967603000,1.92460302734375,-0.007959365844726562,0.004524365067481995,0.0009698718786239624
1763082720972603000,1.929602783203125,-0.0033969879150390625,-0.00507364422082901,0.004628606140613556
1763082720977603000,1.93460302734375,-0.013255119323730469,-0.008282065391540527,0.006354950368404388
1763082720982603000,1.93960302734375,-0.015369415283203125,0.0018029212951660156,0.0019443370401859283
1763082720987603000,1.94460302734375,-0.008879661560058594,-0.0037414580583572388,0.004429072141647339
1763082720992603000,1.949602783203125,-0.014817237854003906,-0.004524633288383484,0.004682499915361404
1763082720997603000,1.95460302734375,-0.022050857543945312,-0.003016449511051178,0.003529675304889679
1763082721002603000,1.95960302734375,-0.011424064636230469,-0.005014792084693909,0.017720390111207962
1763082721007603000,1.96460302734375,-0.006447792053222656,-0.003123924136161804,0.003193095326423645
1763082721012603000,1.969602783203125,-0.005331993103027344,0.004074700176715851,0.009711015969514847
1763082721017603000,1.97460302734375,-0.012089729309082031,0.006325386464595795,0.0028998032212257385
1763082721022603000,1.97960302734375,-0.019351959228515625,-0.002950042486190796,0.005150236189365387
1763082721027603000,1.98460302734375,-0.010122299194335938,-0.0064001381397247314,0.010691139847040176
1763082721032603000,1.989602783203125,-0.012379646301269531,-0.004692889750003815,0.007617391645908356
1763082721037603000,1.99460302734375,-0.011182785034179688,-0.010431461036205292,0.0016925521194934845
1763082721042603000,1.99960302734375,-0.0027179718017578125,-0.005570657551288605,0.0052720047533512115
1763082721047603000,2.00460302734375,-0.0044879913330078125,-0.0009416490793228149,0.0034902989864349365
1763082721052603000,2.009602783203125,-0.004845619201660156,-0.005332127213478088,0.004370708018541336
1763082721057603000,2.01460302734375,-0.0058078765869140625,-0.0023121610283851624,-0.0024379007518291473
1763082721062603000,2.01960302734375,-0.013524055480957031,-0.0008160844445228577,0.004541527479887009
1763082721067603000,2.02460302734375,-0.009785652160644531,0.0032102540135383606,0.009795702993869781
1763082721072603000,2.029602783203125,0.0020093917846679688,0.0014038756489753723,0.010458886623382568
1763082721077603000,2.03460302734375,-0.004982948303222656,-0.002490721642971039,0.0024783238768577576
1763082721082603000,2.03960302734375,-0.01693439483642578,-0.0001962706446647644,0.011576876044273376
1763082721087603000,2.04460302734375,0.0005283355712890625,0.001794472336769104,0.009671516716480255
1763082721092603000,2.049602783203125,-0.0006895065307617188,0.004612050950527191,0.009175188839435577
1763082721097603000,2.05460302734375,0.0013761520385742188,0.0004229024052619934,0.009203057736158371
1763082721102603000,2.05960302734375,-0.007079124450683594,0.0021925196051597595,0.005775835365056992
1763082721107603000,2.06460302734375,-0.010186195373535156,0.0005563721060752869,0.011709049344062805
1763082721112603000,2.069602783203125,-0.0056667327880859375,-0.006823740899562836,0.013855628669261932
1763082721117603000,2.07460302734375,0.0035104751586914062,0.0036422088742256165,0.0006821975111961365
1763082721122603000,2.07960302734375,-0.0064830780029296875,-0.0007048919796943665,0.011426512151956558
1763082721127603000,2.08460302734375,-0.0022382736206054688,0.0032945945858955383,0.011959303170442581
1763082721132603000,2.089602783203125,-0.0012960433959960938,0.0003046467900276184,-0.000795118510723114
1763082721137603000,2.09460302734375,-0.0028028488159179688,-0.010794661939144135,0.007904831320047379
1763082721142603000,2.09960302734375,-0.010434150695800781,0.0024251267313957214,0.0078231580555439
1763082721147603000,2.10460302734375,-0.008256912231445312,0.0016449615359306335,-0.000146377831697464
1763082721152603000,2.109602783203125,-0.008910179138183594,0.003948383033275604,0.010702766478061676
1763082721157603000,2.11460302734375,-0.009952545166015625,0.0057296305894851685,0.0029144883155822754
1763082721162603000,2.11960302734375,0.0004749298095703125,-0.00854819267988205,-0.0015739314258098602
1763082721167603000,2.12460302734375,-0.0046901702880859375,-0.004847213625907898,0.004120226949453354
1763082721172603000,2.129602783203125,0.00008392333984375,-0.0004688277840614319,0.006171677261590958
1763082721177603000,2.13460302734375,0.0020227432250976562,0.0024994686245918274,0.007086731493473053
1763082721182603000,2.13960302734375,-0.0002803802490234375,-0.005596637725830078,0.00626707449555397
1763082721187603000,2.14460302734375,0.0024738311767578125,0.0036566630005836487,0.004332508891820908
1763082721192603000,2.149602783203125,-0.011569023132324219,-0.0028489381074905396,0.002856094390153885
1763082721197603000,2.15460302734375,-0.011126518249511719,-0.002066299319267273,0.010581452399492264
1763082721202603000,2.15960302734375,-0.0026454925537109375,0.0010874047875404358,0.013895377516746521
1763082721207603000,2.16460302734375,-0.001781463623046875,-0.00022765249013900757,0.012022044509649277
1763082721212603000,2.169602783203125,-0.0040912628173828125,-0.0029336363077163696,0.0025602616369724274
1763082721217603000,2.17460302734375,-0.005463600158691406,-0.0034698843955993652,0.004728861153125763
1763082721222603000,2.17960302734375,-0.0008630752563476562,0.00029309093952178955,0.010409954935312271
1763082721227603000,2.18460302734375,-0.010834693908691406,0.001582600176334381,0.008631709963083267
1763082721232603000,2.189602783203125,-0.014914512634277344,0.004543676972389221,0.011931423097848892
1763082721237603000,2.19460302734375,0.009003639221191406,0.0020427554845809937,0.007967431098222733
1763082721242603000,2.19960302734375,-0.009534835815429688,0.004487581551074982,-0.003259040415287018
1763082721247603000,2.20460302734375,-0.0029134750366210938,-0.000513121485710144,0.01445101574063301
1763082721252603000,2.209602783203125,-0.004660606384277344,0.0008386671543121338,0.0169529989361763
1763082721257603000,2.21460302734375,0.0033407211303710938,0.004026174545288086,0.0032880976796150208
1763082721262603000,2.21960302734375,-0.0005483627319335938,0.004739895462989807,-0.0007347986102104187
1763082721267603000,2.22460302734375,0.0025358200073242188,0.004840455949306488,0.011339273303747177
1763082721272603000,2.229602783203125,-0.004075050354003906,-0.0011399835348129272,0.0007280968129634857
1763082721277603000,2.23460302734375,0.0061168670654296875,-0.00041338056325912476,0.009119093418121338
1763082721282603000,2.23960302734375,0.006052970886230469,-0.00014667212963104248,-0.0032479017972946167
1763082721287603000,2.24460302734375,0.002834320068359375,-0.005240179598331451,0.0028227753937244415
1763082721292603000,2.249602783203125,0.004241943359375,0.0005645900964736938,0.009032007306814194
1763082721297603000,2.25460302734375,0.009741783142089844,-0.012025110423564911,0.008314978331327438
1763082721302603000,2.25960302734375,-0.0013103485107421875,-0.008229009807109833,0.004502259194850922
1763082721307603000,2.26460302734375,-0.0069904327392578125,-0.0006932839751243591,0.002850022166967392
1763082721312603000,2.269602783203125,-0.0034093856811523438,-0.0001231655478477478,0.01168239489197731
1763082721317603000,2.27460302734375,0.0094451904296875,0.0016932561993598938,0.0012949258089065552
1763082721322603000,2.27960302734375,0.000244140625,-0.004542581737041473,0.003368176519870758
1763082721327603000,2.28460302734375,0.001422882080078125,0.0005569234490394592,0.005726289004087448
1763082721332603000,2.289602783203125,0.007833480834960938,-0.007384829223155975,0.00778907909989357
1763082721337603000,2.29460302734375,0.014279365539550781,0.005172275006771088,0.0034498944878578186
1763082721342603000,2.29960302734375,0.014403343200683594,0.005377419292926788,-0.0012922883033752441
1763082721347603000,2.30460302734375,0.009767532348632812,0.0013409927487373352,0.008608996868133545
1763082721352603000,2.309602783203125,0.008602142333984375,0.008791729807853699,0.00878235325217247
1763082721357603000,2.31460302734375,0.016539573669433594,0.003460034728050232,0.005003351718187332
1763082721362603000,2.31960302734375,0.006114006042480469,-0.000516749918460846,0.007642894983291626
1763082721367603000,2.32460302734375,-0.0034990310668945312,0.00034584105014801025,0.01185477152466774
1763082721372603000,2.329602783203125,0.0064830780029296875,-0.001118205487728119,0.011967509984970093
1763082721377603000,2.33460302734375,0.008146286010742188,0.003179304301738739,0.005126699805259705
1763082721382603000,2.33960302734375,0.011689186096191406,0.005407482385635376,0.002786260098218918
1763082721387603000,2.34460302734375,0.00439453125,-0.005767077207565308,0.0098823681473732
1763082721392603000,2.349602783203125,0.009685516357421875,-0.005792751908302307,0.0021641552448272705
1763082721397603000,2.35460302734375,0.017412185668945312,0.011615350842475891,0.011809993535280228
1763082721402603000,2.35960302734375,0.00824737548828125,0.0006581619381904602,0.00896066427230835
1763082721407603000,2.36460302734375,0.011537551879882812,-0.0026931315660476685,0.011589102447032928
1763082721412603000,2.369602783203125,0.014596939086914062,-0.0024702250957489014,0.005534160882234573
1763082721417603000,2.37460302734375,0.015587806701660156,-0.0007634609937667847,0.010182738304138184
1763082721422603000,2.37960302734375,0.014547348022460938,0.0008045211434364319,0.004414163529872894
1763082721427603000,2.38460302734375,0.014247894287109375,-0.0012863650918006897,-0.0033223703503608704
1763082721432603000,2.389602783203125,0.008398056030273438,-0.005291752517223358,0.0023308470845222473
1763082721437603000,2.39460302734375,0.0020608901977539062,0.009145766496658325,0.009981021285057068
1763082721442603000,2.39960302734375,0.016821861267089844,0.004468046128749847,0.00998624786734581
1763082721447603000,2.40460302734375,0.018647193908691406,-0.0030524060130119324,0.011436916887760162
1763082721452603000,2.409602783203125,0.013216018676757812,-0.0021487772464752197,0.004127815365791321
1763082721457603000,2.41460302734375,0.01689624786376953,-0.0035511627793312073,0.0019075050950050354
1763082721462603000,2.41960302734375,0.013619422912597656,0.0026521533727645874,0.004935860633850098
1763082721467603000,2.42460302734375,0.02038097381591797,0.0071634575724601746,0.0076846107840538025
1763082721472603000,2.429602783203125,0.016574859619140625,0.0029830709099769592,-0.00270862877368927
1763082721477603000,2.43460302734375,0.028341293334960938,-0.008843675255775452,0.005306228995323181
1763082721482603000,2.43960302734375,0.01974010467529297,0.003007449209690094,-0.0034275464713573456
1763082721487603000,2.44460302734375,0.017584800720214844,-0.003198876976966858,0.0009635277092456818
1763082721492603000,2.449602783203125,0.009673118591308594,-0.0009955838322639465,0.014592308551073074
1763082721497603000,2.45460302734375,0.018512725830078125,0.008238837122917175,0.008019540458917618
1763082721502603000,2.45960302734375,0.02885150909423828,-0.004199415445327759,0.009768109768629074
1763082721507603000,2.46460302734375,0.017366409301757812,0.006595730781555176,0.00847601518034935
1763082721512603000,2.469602783203125,0.023824691772460938,-0.001207895576953888,0.0014038905501365662
1763082721517603000,2.47460302734375,0.02129650115966797,-0.008883938193321228,0.01682789996266365
1763082721522603000,2.47960302734375,0.012900352478027344,0.0007862523198127747,0.01375427097082138
1763082721527603000,2.48460302734375,0.029249191284179688,-0.002449803054332733,0.015087991952896118
1763082721532603000,2.489602783203125,0.022177696228027344,-0.0026788488030433655,0.0051049478352069855
1763082721537603000,2.49460302734375,0.03526782989501953,0.0020829886198043823,0.0044965483248233795
1763082721542603000,2.49960302734375,0.027269363403320312,-0.0029442161321640015,0.008704613894224167
1763082721547603000,2.50460302734375,0.025968551635742188,-0.0021670758724212646,0.010024309158325195
1763082721552603000,2.509602783203125,0.028768539428710938,-0.001388050615787506,0.01353759691119194
1763082721557603000,2.51460302734375,0.02423858642578125,0.004209063947200775,0.009427621960639954
1763082721562603000,2.51960302734375,0.029146194458007812,-0.00014344602823257446,0.0007514506578445435
1763082721567603000,2.52460302734375,0.026864051818847656,-0.002050936222076416,0.0034324415028095245
1763082721572603000,2.529602783203125,0.024297714233398438,0.0024475455284118652,0.010294202715158463
1763082721577603000,2.53460302734375,0.017645835876464844,-0.002569854259490967,0.005596179515123367
1763082721582603000,2.53960302734375,0.028490066528320312,0.0016224905848503113,0.004119887948036194
1763082721587603000,2.54460302734375,0.023812294006347656,0.0048526376485824585,0.010585818439722061
1763082721592603000,2.549602783203125,0.020211219787597656,0.0008029937744140625,0.013486061245203018
1763082721597603000,2.55460302734375,0.022626876831054688,-0.006571874022483826,0.004310149699449539
1763082721602603000,2.55960302734375,0.026834487915039062,-0.005886770784854889,0.007158204913139343
1763082721607603000,2.56460302734375,0.032866477966308594,0.006797969341278076,0.006513524800539017
1763082721612603000,2.569602783203125,0.024863243103027344,0.004599250853061676,0.003916684538125992
1763082721617603000,2.57460302734375,0.016951560974121094,0.011929966509342194,0.008027970790863037
1763082721622603000,2.57960302734375,0.01918315887451172,-0.0030016154050827026,0.001728501170873642
1763082721627603000,2.58460302734375,0.02740955352783203,-0.0011932626366615295,0.008725631982088089
1763082721632603000,2.589602783203125,0.02898883819580078,-0.002324029803276062,0.0026622824370861053
1763082721637603000,2.59460302734375,0.027701377868652344,-0.007240459322929382,0.011129308491945267
1763082721642603000,2.59960302734375,0.023420333862304688,0.004013493657112122,0.004317764192819595
1763082721647603000,2.60460302734375,0.03130912780761719,-0.0014461427927017212,0.012231137603521347
1763082721652603000,2.609602783203125,0.035381317138671875,0.006113782525062561,0.009324360638856888
1763082721657603000,2.61460302734375,0.02827739715576172,0.004354566335678101,0.0017133615911006927
1763082721662603000,2.61960302734375,0.01907825469970703,0.00499146431684494,0.0049008652567863464
1763082721667603000,2.62460302734375,0.024196624755859375,0.003872424364089966,0.010785672813653946
1763082721672603000,2.629602783203125,0.034915924072265625,-0.003483019769191742,0.014301523566246033
1763082721677603000,2.63460302734375,0.0356597900390625,-0.0071678683161735535,0.006338845938444138
1763082721682603000,2.63960302734375,0.018113136291503906,-0.01094488799571991,-0.00020627304911613464
1763082721687603000,2.64460302734375,0.02939319610595703,0.002759210765361786,0.006098408252000809
1763082721692603000,2.649602783203125,0.02477550506591797,0.005262322723865509,0.006172806024551392
1763082721697603000,2.65460302734375,0.02483081817626953,-0.005931228399276733,0.014047566801309586
1763082721702603000,2.65960302734375,0.01575756072998047,-0.0012203007936477661,0.011648472398519516
1763082721707603000,2.66460302734375,0.02563953399658203,0.0027732253074645996,0.009065218269824982
1763082721712603000,2.669602783203125,0.03754711151123047,0.010954458266496658,-0.0001125633716583252
1763082721717603000,2.67460302734375,0.024072647094726562,-0.0060777366161346436,0.0119955874979496
1763082721722603000,2.67960302734375,0.0186004638671875,0.006161719560623169,-0.0008762739598751068
1763082721727603000,2.68460302734375,0.028123855590820312,-0.009010650217533112,0.003568030893802643
1763082721732603000,2.689602783203125,0.028326034545898438,-0.006343439221382141,0.012116871774196625
1763082721737603000,2.69460302734375,0.03187084197998047,0.006264112889766693,0.004813771694898605
1763082721742603000,2.69960302734375,0.0073394775390625,0.003374330699443817,0.005193475633859634
1763082721747603000,2.70460302734375,0.02147388458251953,0.0003211796283721924,0.0015776529908180237
1763082721752603000,2.709602783203125,0.027891159057617188,0.0004067420959472656,0.011294946074485779
1763082721757603000,2.71460302734375,0.029501914978027344,-0.003934770822525024,0.008895788341760635
1763082721762603000,2.71960302734375,0.018270492553710938,-0.0043871477246284485,0.015187092125415802
1763082721767603000,2.72460302734375,0.0250396728515625,0.0009292960166931152,0.006787467747926712
1763082721772603000,2.729602783203125,0.03055095672607422,0.0004008561372756958,0.00774751603603363
1763082721777603000,2.73460302734375,0.02861309051513672,-0.007509849965572357,-0.0007265768945217133
1763082721782603000,2.73960302734375,0.0170745849609375,-0.004624061286449432,0.007270429283380508
1763082721787603000,2.74460302734375,0.01611614227294922,-0.003021351993083954,0.012685861438512802
1763082721792603000,2.749602783203125,0.03189373016357422,-0.006572045385837555,0.002493247389793396
1763082721797603000,2.75460302734375,0.03865528106689453,0.006894923746585846,0.007107865065336227
1763082721802603000,2.75960302734375,0.0161285400390625,-0.003353320062160492,0.004597324877977371
1763082721807603000,2.76460302734375,0.026468276977539062,0.0024295225739479065,0.007280096411705017
1763082721812603000,2.769602783203125,0.021721839904785156,-0.00497504323720932,0.008655838668346405
1763082721817603000,2.77460302734375,0.025798797607421875,-0.0020379573106765747,0.011838804930448532
1763082721822603000,2.77960302734375,0.025972366333007812,-0.004029616713523865,0.011622834950685501
1763082721827603000,2.78460302734375,0.025655746459960938,-0.00034461915493011475,0.010120261460542679
1763082721832603000,2.789602783203125,0.035180091857910156,-0.004137672483921051,0.014799073338508606
1763082721837603000,2.79460302734375,0.03309345245361328,0.0028397738933563232,0.00711749866604805
1763082721842603000,2.79960302734375,0.017998695373535156,-0.0026464685797691345,0.01333513855934143
1763082721847603000,2.80460302734375,0.00634765625,0.0006135180592536926,-0.006692778319120407
1763082721852603000,2.809602783203125,0.022764205932617188,0.0028020963072776794,0.006601903587579727
1763082721857603000,2.81460302734375,0.03000640869140625,0.007082648575305939,0.00691661611199379
1763082721862603000,2.81960302734375,0.025638580322265625,-0.004943422973155975,0.01284312829375267
1763082721867603000,2.82460302734375,0.018932342529296875,0.006503120064735413,0.001626819372177124
1763082721872603000,2.829602783203125,0.013271331787109375,0.007709585130214691,0.0070366449654102325
1763082721877603000,2.83460302734375,0.036215782165527344,0.0049110352993011475,0.006065379828214645
1763082721882603000,2.83960302734375,0.025908470153808594,-0.006751313805580139,0.01635059341788292
1763082721887603000,2.84460302734375,0.017296791076660156,0.0006911829113960266,0.001431576907634735
1763082721892603000,2.849602783203125,0.01594066619873047,0.0032877475023269653,0.004069715738296509
1763082721897603000,2.85460302734375,0.020394325256347656,0.00037323683500289917,0.010079614818096161
1763082721902603000,2.85960302734375,0.02365398406982422,-0.003967888653278351,0.00957854837179184
1763082721907603000,2.86460302734375,0.017533302307128906,-0.009953968226909637,0.014676317572593689
1763082721912603000,2.869602783203125,0.018561363220214844,0.0005587711930274963,0.005835190415382385
1763082721917603000,2.87460302734375,0.03285503387451172,-0.0034025460481643677,0.00747501477599144
1763082721922603000,2.87960302734375,0.023718833923339844,0.000613577663898468,0.006024181842803955
1763082721927603000,2.88460302734375,0.017545700073242188,0.0022599995136260986,0.01453378051519394
1763082721932603000,2.889602783203125,0.022902488708496094,0.0039575472474098206,0.004365365952253342
1763082721937603000,2.89460302734375,0.029468536376953125,-0.006782524287700653,0.005829133093357086
1763082721942603000,2.89960302734375,0.032715797424316406,0.003066420555114746,0.009380649775266647
1763082721947603000,2.90460302734375,0.023393630981445312,0.00240451842546463,0.0036441273987293243
1763082721952603000,2.909602783203125,0.014456748962402344,-0.0019873008131980896,0.009626321494579315
1763082721957603000,2.91460302734375,0.025419235229492188,-0.005415894091129303,0.01763148605823517
1763082721962603000,2.91960302734375,0.034786224365234375,0.005655013024806976,0.011803723871707916
1763082721967603000,2.92460302734375,0.018732070922851562,-0.005677953362464905,0.007253963500261307
1763082721972603000,2.929602783203125,0.018426895141601562,-0.0017368867993354797,0.010516617447137833
1763082721977603000,2.93460302734375,0.03441143035888672,-0.0036291778087615967,0.008129529654979706
1763082721982603000,2.93960302734375,0.035866737365722656,0.0034625977277755737,0.012991610914468765
1763082721987603000,2.94460302734375,0.033725738525390625,-0.004215903580188751,0.0028739124536514282
1763082721992603000,2.949602783203125,0.0216217041015625,-0.0007695332169532776,0.012357331812381744
1763082721997603000,2.95460302734375,0.02245330810546875,0.000590108335018158,0.005887337028980255
1763082722002603000,2.95960302734375,0.027240753173828125,0.0025817304849624634,0.005891617387533188
1763082722007603000,2.96460302734375,0.02289581298828125,0.0037522390484809875,0.015266578644514084
1763082722012603000,2.969602783203125,0.022153854370117188,0.011137053370475769,0.008255790919065475
1763082722017603000,2.97460302734375,0.030328750610351562,-0.017220325767993927,0.004477817565202713
1763082722022603000,2.97960302734375,0.03141307830810547,0.0009839311242103577,0.010221939533948898
1763082722027603000,2.98460302734375,0.03311920166015625,-0.006558559834957123,0.0008755140006542206
1763082722032603000,2.989602783203125,0.020244598388671875,-0.004998005926609039,0.005524415522813797
1763082722037603000,2.99460302734375,0.0240325927734375,-0.004500575363636017,0.010915149003267288
1763082722042603000,2.99960302734375,0.036945343017578125,-0.004822246730327606,0.008942998945713043
1763082722047603000,3.00460302734375,0.03640270233154297,0.0029652640223503113,0.009737443178892136
1763082722052603000,3.009602783203125,0.02474498748779297,0.008428126573562622,0.0007029436528682709
1763082722057603000,3.01460302734375,0.013497352600097656,-0.0006330683827400208,0.0071723610162734985
1763082722062603000,3.01960302734375,0.029628753662109375,-0.0016465634107589722,0.007184050977230072
1763082722067603000,3.02460302734375,0.020857810974121094,-0.004589058458805084,0.0009762570261955261
1763082722072603000,3.029602783203125,0.015392303466796875,-0.0021137967705726624,0.004844203591346741
1763082722077603000,3.03460302734375,0.02160167694091797,0.00002896040678024292,0.01112326979637146
1763082722082603000,3.03960302734375,0.03033447265625,-0.0011916235089302063,0.010018620640039444
1763082722087603000,3.04460302734375,0.040477752685546875,-0.0038137435913085938,0.019542068243026733
1763082722092603000,3.049602783203125,0.02061176300048828,-0.00041456520557403564,0.009762663394212723
1763082722097603000,3.05460302734375,0.01707172393798828,0.0008764192461967468,0.011039439588785172
1763082722102603000,3.05960302734375,0.030530929565429688,-0.005723893642425537,0.015133023262023926
1763082722107603000,3.06460302734375,0.029030799865722656,-0.00034268200397491455,0.008514080196619034
1763082722112603000,3.069602783203125,0.037445068359375,0.0019924119114875793,0.007164277136325836
1763082722117603000,3.07460302734375,0.01960277557373047,-0.0076837316155433655,0.009530730545520782
1763082722122603000,3.07960302734375,0.02637004852294922,0.001339145004749298,-0.004704330116510391
1763082722127603000,3.08460302734375,0.030170440673828125,0.0012967512011528015,0.0065412260591983795
1763082722132603000,3.089602783203125,0.022554397583007812,0.0021304190158843994,0.016398899257183075
1763082722137603000,3.09460302734375,0.02100658416748047,-0.0029183104634284973,0.011630445718765259
1763082722142603000,3.09960302734375,0.021738052368164062,-0.00969388335943222,0.006317514926195145
1763082722147603000,3.10460302734375,0.04075431823730469,0.0038546472787857056,0.00629979744553566
1763082722152603000,3.109602783203125,0.028702735900878906,0.005392841994762421,0.0025878213346004486
1763082722157603000,3.11460302734375,0.011931419372558594,-0.00015059113502502441,0.006195157766342163
1763082722162603000,3.11960302734375,0.02218151092529297,-0.0007552504539489746,0.0020361393690109253
1763082722167603000,3.12460302734375,0.031928062438964844,-0.0005761310458183289,0.00009579211473464966
1763082722172603000,3.129602783203125,0.02144908905029297,-0.005995705723762512,0.0017415396869182587
1763082722177603000,3.13460302734375,0.01671600341796875,-0.0014039203524589539,0.0005840621888637543
1763082722182603000,3.13960302734375,0.02805042266845703,-0.0078376904129982,0.014994118362665176
1763082722187603000,3.14460302734375,0.03033924102783203,-0.008205153048038483,-0.0007158517837524414
1763082722192603000,3.149602783203125,0.02998828887939453,-0.001261383295059204,0.007649857550859451
1763082722197603000,3.15460302734375,0.019382476806640625,-0.002322748303413391,0.0032472871243953705
1763082722202603000,3.15960302734375,0.017042160034179688,0.003656260669231415,0.005380857735872269
1763082722207603000,3.16460302734375,0.03851032257080078,0.0010930001735687256,0.005437027662992477
1763082722212603000,3.169602783203125,0.037537574768066406,-0.006410449743270874,0.005191780626773834
1763082722217603000,3.17460302734375,0.01409912109375,-0.004809573292732239,0.010121814906597137
1763082722222603000,3.17960302734375,0.022319793701171875,0.0017375051975250244,0.003038354218006134
1763082722227603000,3.18460302734375,0.03754138946533203,0.0030712559819221497,0.008227672427892685
1763082722232603000,3.189602783203125,0.0326385498046875,-0.014139391481876373,0.00851362943649292
1763082722237603000,3.19460302734375,0.015078544616699219,-0.0024362653493881226,0.009419165551662445
1763082722242603000,3.19960302734375,0.0112152099609375,0.0012726709246635437,0.005040183663368225
1763082722247603000,3.20460302734375,0.032833099365234375,-0.006554596126079559,0.012654174119234085
1763082722252603000,3.209602783203125,0.028069496154785156,-0.011612281203269958,0.014089927077293396
1763082722257603000,3.21460302734375,0.013474464416503906,-0.0028961151838302612,0.00268690288066864
1763082722262603000,3.21960302734375,0.015923500061035156,0.00511576235294342,0.004473499953746796
1763082722267603000,3.22460302734375,0.04054450988769531,0.002458050847053528,0.000280231237411499
1763082722272603000,3.229602783203125,0.04463958740234375,-0.0020302608609199524,-0.001986157149076462
1763082722277603000,3.23460302734375,0.01979351043701172,0.003890298306941986,0.009127534925937653
1763082722282603000,3.23960302734375,0.01703929901123047,0.002386912703514099,0.008100330829620361
1763082722287603000,3.24460302734375,0.02898406982421875,0.007289573550224304,0.008755680173635483
1763082722292603000,3.249602783203125,0.03676033020019531,-0.002703428268432617,0.008668385446071625
1763082722297603000,3.25460302734375,0.027840614318847656,0.00303833931684494,0.013947464525699615
1763082722302603000,3.25960302734375,0.016882896423339844,-0.0018811672925949097,0.003887902945280075
1763082722307603000,3.26460302734375,0.03619575500488281,-0.002728693187236786,0.0013471394777297974
1763082722312603000,3.269602783203125,0.031002044677734375,0.008443832397460938,0.0033017508685588837
1763082722317603000,3.27460302734375,0.01677703857421875,-0.0008958429098129272,0.00812840461730957
1763082722322603000,3.27960302734375,0.016236305236816406,0.006489790976047516,-0.006087105721235275
1763082722327603000,3.28460302734375,0.026308059692382812,-0.0009207203984260559,0.007426165044307709
1763082722332603000,3.289602783203125,0.03300285339355469,0.0008760616183280945,0.00508098304271698
1763082722337603000,3.29460302734375,0.021450042724609375,0.0032222867012023926,-0.00009002536535263062
1763082722342603000,3.29960302734375,0.024893760681152344,-0.0015429183840751648,0.01061650738120079
1763082722347603000,3.30460302734375,0.013275146484375,-0.002553872764110565,0.011214260011911392
1763082722352603000,3.309602783203125,0.03349113464355469,0.013408452272415161,0.005658622831106186
1763082722357603000,3.31460302734375,0.028512954711914062,0.007857143878936768,0.0054161325097084045
1763082722362603000,3.31960302734375,0.009144783020019531,0.00262615829706192,0.013479907065629959
1763082722367603000,3.32460302734375,0.014881134033203125,-0.0037007033824920654,0.004780970513820648
1763082722372603000,3.329602783203125,0.03967475891113281,0.006174810230731964,0.0031329691410064697
1763082722377603000,3.33460302734375,0.027799606323242188,0.0022292956709861755,0.009867440909147263
1763082722382603000,3.33960302734375,0.008854866027832031,0.006755039095878601,0.005122106522321701
1763082722387603000,3.34460302734375,0.009757041931152344,0.0011295899748802185,0.0025770850479602814
1763082722392603000,3.349602783203125,0.025545120239257812,-0.0012680590152740479,0.013353973627090454
1763082722397603000,3.35460302734375,0.025224685668945312,-0.0005843862891197205,0.0034074336290359497
1763082722402603000,3.35960302734375,0.026055335998535156,0.004731826484203339,0.005189057439565659
1763082722407603000,3.36460302734375,0.009715080261230469,0.016395248472690582,0.014844860881567001
1763082722412603000,3.369602783203125,0.01879405975341797,0.006259165704250336,0.008074164390563965
1763082722417603000,3.37460302734375,0.0325469970703125,-0.0023795664310455322,-0.002967868000268936
1763082722422603000,3.37960302734375,0.014054298400878906,-0.003108680248260498,0.0036434493958950043
1763082722427603000,3.38460302734375,0.010254859924316406,-0.005195155739784241,0.015578251332044601
1763082722432603000,3.389602783203125,0.016660690307617188,0.0037993863224983215,0.010333862155675888
1763082722437603000,3.39460302734375,0.03756427764892578,0.0015129223465919495,0.00965559110045433
1763082722442603000,3.39960302734375,0.012776374816894531,-0.0005475729703903198,0.0020608454942703247
1763082722447603000,3.40460302734375,0.010163307189941406,-0.006736472249031067,0.004212953150272369
1763082722452603000,3.409602783203125,0.0081939697265625,-0.0006351321935653687,0.011645488440990448
1763082722457603000,3.41460302734375,0.02815532684326172,0.005808256566524506,0.005719650536775589
1763082722462603000,3.41960302734375,0.021447181701660156,0.002741865813732147,0.006898179650306702
1763082722467603000,3.42460302734375,-0.004902839660644531,-0.00009239464998245239,0.004046652466058731
1763082722472603000,3.429602783203125,0.011906623840332031,-0.0014337524771690369,0.013627897948026657
1763082722477603000,3.43460302734375,0.022569656372070312,-0.003618992865085602,0.011241070926189423
1763082722482603000,3.43960302734375,0.019310951232910156,-0.00023817270994186401,0.008080095052719116
1763082722487603000,3.44460302734375,0.009982109069824219,0.0012392252683639526,0.009390372782945633
1763082722492603000,3.449602783203125,0.007114410400390625,0.007432237267494202,0.014382395893335342
1763082722497603000,3.45460302734375,0.026579856872558594,0.0007092133164405823,0.010346651077270508
1763082722502603000,3.45960302734375,0.016106605529785156,0.0003244131803512573,0.0048681385815143585
1763082722507603000,3.46460302734375,-0.0024175643920898438,0.0011686906218528748,0.010705996304750443
1763082722512603000,3.469602783203125,0.012469291687011719,0.00524669885635376,0.008315414190292358
1763082722517603000,3.47460302734375,0.028497695922851562,0.009037606418132782,0.008567225188016891
1763082722522603000,3.47960302734375,0.029966354370117188,0.005396515130996704,0.00004703551530838013
1763082722527603000,3.48460302734375,0.0035915374755859375,-0.0023592114448547363,0.01081293448805809
1763082722532603000,3.489602783203125,0.0161590576171875,-0.007866576313972473,0.004467178136110306
1763082722537603000,3.49460302734375,0.02031230926513672,0.009918980300426483,-0.001251664012670517
1763082722542603000,3.49960302734375,0.02997589111328125,0.006900973618030548,0.004490863531827927
1763082722547603000,3.50460302734375,0.012930870056152344,-0.0004427507519721985,0.018812812864780426
1763082722552603000,3.509602783203125,0.00870513916015625,-0.005219511687755585,0.005392894148826599
1763082722557603000,3.51460302734375,0.017136573791503906,-0.000273287296295166,0.0002888403832912445
1763082722562603000,3.51960302734375,0.02134227752685547,0.003920994699001312,0.00185486301779747
1763082722567603000,3.52460302734375,0.014955520629882812,-0.0006868541240692139,0.0032368414103984833
1763082722572603000,3.529602783203125,0.020285606384277344,-0.00005852431058883667,0.0122380331158638
1763082722577603000,3.53460302734375,0.023070335388183594,0.004049420356750488,0.009285908192396164
1763082722582603000,3.53960302734375,0.015831947326660156,-0.007791690528392792,0.021027009934186935
1763082722587603000,3.54460302734375,0.009107589721679688,0.003975719213485718,0.010456278920173645
1763082722592603000,3.549602783203125,0.0021371841430664062,0.0022275596857070923,0.008498501032590866
1763082722597603000,3.55460302734375,0.011209487915039062,0.002661310136318207,0.006076183170080185
1763082722602603000,3.55960302734375,0.02132415771484375,-0.0008783414959907532,0.0010351650416851044
1763082722607603000,3.56460302734375,0.020531654357910156,0.0014756843447685242,0.008836556226015091
1763082722612603000,3.569602783203125,0.009027481079101562,-0.0037633702158927917,0.0031435154378414154
1763082722617603000,3.57460302734375,0.018217086791992188,-0.001334354281425476,0.007090460509061813
1763082722622603000,3.57960302734375,0.012735366821289062,0.006871350109577179,0.0017330721020698547
1763082722627603000,3.58460302734375,0.018362998962402344,-0.0014361143112182617,0.003213007003068924
1763082722632603000,3.589602783203125,0.011301994323730469,-0.007713302969932556,0.012817967683076859
1763082722637603000,3.59460302734375,0.0049896240234375,-0.002047598361968994,0.010608851909637451
1763082722642603000,3.59960302734375,0.012762069702148438,0.010184608399868011,0.003443688154220581
1763082722647603000,3.60460302734375,0.011288642883300781,0.007627509534358978,0.004634089767932892
1763082722652603000,3.609602783203125,0.006447792053222656,0.0017431005835533142,-0.0070175230503082275
1763082722657603000,3.61460302734375,0.010205268859863281,0.0015822723507881165,0.0072388313710689545
1763082722662603000,3.61960302734375,0.006237030029296875,-0.005139566957950592,0.007690407335758209
1763082722667603000,3.62460302734375,0.0031232833862304688,0.002873636782169342,0.010985679924488068
1763082722672603000,3.629602783203125,0.014910697937011719,0.007737264037132263,-0.001811400055885315
1763082722677603000,3.63460302734375,0.010882377624511719,0.003125026822090149,0.01720108464360237
1763082722682603000,3.63960302734375,0.011233329772949219,-0.0011070296168327332,0.013858478516340256
1763082722687603000,3.64460302734375,0.022500991821289062,-0.004001535475254059,0.0071943216025829315
1763082722692603000,3.649602783203125,0.020647048950195312,-0.00099983811378479,0.008476115763187408
1763082722697603000,3.65460302734375,0.008049964904785156,-0.0009895414113998413,0.007801879197359085
1763082722702603000,3.65960302734375,0.008673667907714844,-0.00674872100353241,0.007804259657859802
1763082722707603000,3.66460302734375,0.018729209899902344,-0.005528010427951813,0.00594392791390419
1763082722712603000,3.669602783203125,0.010005950927734375,-0.003320060670375824,0.00011508166790008545
1763082722717603000,3.67460302734375,0.006573677062988281,0.0012438595294952393,0.009044408798217773
1763082722722603000,3.67960302734375,0.0006074905395507812,0.005816638469696045,0.006813712418079376
1763082722727603000,3.68460302734375,0.01218414306640625,0.002037845551967621,0.014006480574607849
1763082722732603000,3.689602783203125,0.014020919799804688,0.00022649019956588745,0.0007736533880233765
1763082722737603000,3.69460302734375,0.0032444000244140625,-0.005727410316467285,0.005867470055818558
1763082722742603000,3.69960302734375,0.0010881423950195312,0.0013492777943611145,0.007575660943984985
1763082722747603000,3.70460302734375,0.007243156433105469,0.0005472898483276367,0.004335127770900726
1763082722752603000,3.709602783203125,0.007346153259277344,-0.005561888217926025,0.004683777689933777
1763082722757603000,3.71460302734375,0.005171775817871094,-0.0008099526166915894,0.008041005581617355
1763082722762603000,3.71960302734375,-0.001018524169921875,0.0037086158990859985,0.0009167715907096863
1763082722767603000,3.72460302734375,0.008141517639160156,-0.001619189977645874,0.004931360483169556
1763082722772603000,3.729602783203125,0.00018405914306640625,0.00030277669429779053,0.00835985317826271
1763082722777603000,3.73460302734375,-0.005864143371582031,0.0020895376801490784,0.007142152637243271
1763082722782603000,3.73960302734375,-0.008523941040039062,0.005941078066825867,0.007406458258628845
1763082722787603000,3.74460302734375,-0.0028123855590820312,-0.0014472007751464844,0.011247452348470688
1763082722792603000,3.749602783203125,0.002590179443359375,-0.0010725855827331543,0.011463932693004608
1763082722797603000,3.75460302734375,0.0011005401611328125,0.0007400661706924438,0.003990836441516876
1763082722802603000,3.75960302734375,-0.009327888488769531,-0.00015708059072494507,-0.0014062821865081787
1763082722807603000,3.76460302734375,-0.008122444152832031,0.004440978169441223,0.005237706005573273
1763082722812603000,3.769602783203125,0.0008516311645507812,-0.005700886249542236,0.00699780136346817
1763082722817603000,3.77460302734375,0.00019168853759765625,-0.0038089603185653687,0.008241750299930573
1763082722822603000,3.77960302734375,0.0032901763916015625,-0.007646158337593079,0.00174737349152565
1763082722827603000,3.78460302734375,-0.000003814697265625,-0.006794273853302002,0.006014596670866013
1763082722832603000,3.789602783203125,0.0055217742919921875,0.009513147175312042,0.005922630429267883
1763082722837603000,3.79460302734375,0.004939079284667969,0.0036437436938285828,0.007120151072740555
1763082722842603000,3.79960302734375,-0.0053615570068359375,0.001366257667541504,0.006840817630290985
1763082722847603000,3.80460302734375,-0.0025911331176757812,0.0008739456534385681,0.004551783204078674
1763082722852603000,3.809602783203125,0.00042057037353515625,-0.005018413066864014,0.009935431182384491
1763082722857603000,3.81460302734375,-0.0039501190185546875,-0.003785073757171631,0.00010539591312408447
1763082722862603000,3.81960302734375,-0.005661964416503906,0.00038442015647888184,0.005664091557264328
1763082722867603000,3.82460302734375,-0.019799232482910156,-0.004130527377128601,0.001033298671245575
1763082722872603000,3.829602783203125,-0.017686843872070312,0.00014109909534454346,0.007715899497270584
1763082722877603000,3.83460302734375,-0.010950088500976562,-0.01023218035697937,0.007847938686609268
1763082722882603000,3.83960302734375,-0.020357131958007812,0.0017808377742767334,0.005053471773862839
1763082722887603000,3.84460302734375,-0.009279251098632812,-0.0003962591290473938,0.004527270793914795
1763082722892603000,3.849602783203125,-0.015707969665527344,0.0047918930649757385,0.006254855543375015
1763082722897603000,3.85460302734375,-0.0037555694580078125,-0.011029385030269623,0.008714452385902405
1763082722902603000,3.85960302734375,0.00213623046875,0.005074858665466309,0.008881032466888428
1763082722907603000,3.86460302734375,-0.012743949890136719,0.0019307062029838562,0.007659338414669037
1763082722912603000,3.869602783203125,-0.008936882019042969,0.0006560757756233215,0.0029186196625232697
1763082722917603000,3.87460302734375,-0.0023374557495117188,-0.000689089298248291,0.012379579246044159
1763082722922603000,3.87960302734375,-0.016912460327148438,-0.01397000253200531,0.0010915324091911316
1763082722927603000,3.88460302734375,-0.018215179443359375,-0.011416226625442505,0.00875299796462059
1763082722932603000,3.889602783203125,-0.013231277465820312,-0.0030556246638298035,0.006356220692396164
1763082722937603000,3.89460302734375,-0.016828536987304688,0.008249491453170776,0.0017306245863437653
1763082722942603000,3.89960302734375,-0.013277053833007812,0.005340844392776489,0.006221596151590347
1763082722947603000,3.90460302734375,-0.021343231201171875,0.0044068098068237305,0.008993159979581833
1763082722952603000,3.909602783203125,-0.017679214477539062,0.00455068051815033,0.002114914357662201
1763082722957603000,3.91460302734375,-0.007951736450195312,0.00043508410453796387,0.005054805427789688
1763082722962603000,3.91960302734375,-0.009098052978515625,-0.0022257715463638306,0.0066122934222221375
1763082722967603000,3.92460302734375,-0.018251419067382812,0.004809647798538208,0.003702998161315918
1763082722972603000,3.929602783203125,-0.02214336395263672,-0.0044859349727630615,0.003253459930419922
1763082722977603000,3.93460302734375,-0.02738475799560547,-0.002325594425201416,0.00881977379322052
1763082722982603000,3.93960302734375,-0.017822265625,0.0018946677446365356,0.00582653284072876
1763082722987603000,3.94460302734375,-0.016473770141601562,0.0001511797308921814,0.01147429645061493
1763082722992603000,3.949602783203125,-0.030274391174316406,-0.0013135746121406555,0.0054716020822525024
1763082722997603000,3.95460302734375,-0.02158069610595703,-0.001315183937549591,0.015542559325695038
1763082723002603000,3.95960302734375,-0.01091766357421875,0.011550582945346832,0.006389189511537552
1763082723007603000,3.96460302734375,-0.015165328979492188,0.0011983811855316162,0.0020563267171382904
1763082723012603000,3.969602783203125,-0.02537059783935547,-0.0004923120141029358,-0.0026927851140499115
1763082723017603000,3.97460302734375,-0.029129981994628906,-0.004508346319198608,0.009790357202291489
1763082723022603000,3.97960302734375,-0.02457427978515625,-0.0071127042174339294,0.008120700716972351
1763082723027603000,3.98460302734375,-0.016379356384277344,-0.00045170634984970093,0.006757285445928574
1763082723032603000,3.989602783203125,-0.017638206481933594,0.004532046616077423,0.02304225042462349
1763082723037603000,3.99460302734375,-0.039206504821777344,0.003176353871822357,0.01159801334142685
1763082723042603000,3.99960302734375,-0.025033950805664062,0.0018624663352966309,0.0014657489955425262
1763082723047603000,4.00460302734375,-0.02320384979248047,0.006676390767097473,0.012811854481697083
1763082723052603000,4.009602783203125,-0.01760101318359375,-0.0076544880867004395,0.007359977811574936
1763082723057603000,4.01460302734375,-0.025669097900390625,0.005472719669342041,0.0048745498061180115
1763082723062603000,4.01960302734375,-0.04001903533935547,-0.002694934606552124,0.016495734453201294
1763082723067603000,4.02460302734375,-0.030149459838867188,-0.001122407615184784,0.006368275731801987
1763082723072603000,4.029602783203125,-0.034595489501953125,-0.005627207458019257,0.009773246943950653
1763082723077603000,4.03460302734375,-0.032184600830078125,0.0018764212727546692,0.008268099278211594
1763082723082603000,4.03960302734375,-0.023527145385742188,0.005938209593296051,0.006436441093683243
1763082723087603000,4.04460302734375,-0.029564857482910156,0.005095727741718292,0.012161917984485626
1763082723092603000,4.049602783203125,-0.030653953552246094,-0.0015077441930770874,0.004070878028869629
1763082723097603000,4.05460302734375,-0.027935028076171875,0.0001227930188179016,0.013901013880968094
1763082723102603000,4.05960302734375,-0.03358173370361328,0.0022739842534065247,0.00501183420419693
1763082723107603000,4.06460302734375,-0.033303260803222656,-0.00003729015588760376,-0.005332347005605698
1763082723112603000,4.069602783203125,-0.04012107849121094,0.004405073821544647,0.005404584109783173
1763082723117603000,4.07460302734375,-0.03249168395996094,-0.0020029768347740173,0.0033065006136894226
1763082723122603000,4.07960302734375,-0.040429115295410156,0.000199049711227417,-0.0005076564848423004
1763082723127603000,4.08460302734375,-0.027564048767089844,-0.0010030418634414673,0.00024507567286491394
1763082723132603000,4.089602783203125,-0.0283966064453125,0.0029378756880760193,0.0010725334286689758
1763082723137603000,4.09460302734375,-0.038969993591308594,0.005448691546916962,0.0081121064722538
1763082723142603000,4.09960302734375,-0.02341461181640625,-0.002831965684890747,0.018032047897577286
1763082723147603000,4.10460302734375,-0.02418231964111328,-0.002522088587284088,-0.0031937435269355774
1763082723152603000,4.109602783203125,-0.02961254119873047,-0.0011152103543281555,0.0029461681842803955
1763082723157603000,4.11460302734375,-0.03168773651123047,-0.0062226951122283936,0.007243923842906952
1763082723162603000,4.11960302734375,-0.035323143005371094,0.0037130191922187805,0.016193386167287827
1763082723167603000,4.12460302734375,-0.02948760986328125,-0.007492572069168091,0.010067563503980637
1763082723172603000,4.129602783203125,-0.027406692504882812,-0.004954710602760315,0.005351755768060684
1763082723177603000,4.13460302734375,-0.02489948272705078,0.0002834498882293701,0.004193495959043503
1763082723182603000,4.13960302734375,-0.02926921844482422,0.0011162832379341125,0.013922248035669327
1763082723187603000,4.14460302734375,-0.02364635467529297,0.011975057423114777,0.006329543888568878
1763082723192603000,4.149602783203125,-0.0128021240234375,-0.0035546869039535522,0.00602339580655098
1763082723197603000,4.15460302734375,-0.025915145874023438,0.0044057369232177734,0.00966387614607811
1763082723202603000,4.15960302734375,-0.026106834411621094,0.00009576231241226196,0.012389793992042542
1763082723207603000,4.16460302734375,-0.02431964874267578,-0.0021999329328536987,0.006792012602090836
1763082723212603000,4.169602783203125,-0.0223236083984375,0.0019350498914718628,0.007139511406421661
1763082723217603000,4.17460302734375,-0.0169219970703125,-0.00033010542392730713,0.0016828887164592743
1763082723222603000,4.17960302734375,-0.025420188903808594,-0.004639968276023865,0.007397465407848358
1763082723227603000,4.18460302734375,-0.027953147888183594,-0.0011699274182319641,0.010149765759706497
1763082723232603000,4.189602783203125,-0.011600494384765625,-0.0027359575033187866,0.010686304420232773
1763082723237603000,4.19460302734375,-0.017426490783691406,-0.006764717400074005,0.00809115543961525
1763082723242603000,4.19960302734375,-0.03680706024169922,-0.008478030562400818,0.010584842413663864
1763082723247603000,4.20460302734375,-0.02890300750732422,-0.008788034319877625,0.005948148667812347
1763082723252603000,4.209602783203125,-0.018624305725097656,0.0027015581727027893,0.005932316184043884
1763082723257603000,4.21460302734375,-0.03179359436035156,-0.0032652541995048523,0.007679060101509094
1763082723262603000,4.21960302734375,-0.025423049926757812,-0.006955653429031372,0.006392326205968857
1763082723267603000,4.22460302734375,-0.022878646850585938,0.010434649884700775,0.009216580539941788
1763082723272603000,4.229602783203125,-0.01999950408935547,0.00032376497983932495,0.00240948423743248
1763082723277603000,4.23460302734375,-0.01758098602294922,-0.008398406207561493,0.013631056994199753
1763082723282603000,4.23960302734375,-0.027220726013183594,-0.0037154629826545715,0.009448345750570297
1763082723287603000,4.24460302734375,-0.019350051879882812,0.0028539523482322693,0.0023843012750148773
1763082723292603000,4.249602783203125,-0.02022838592529297,-0.00652824342250824,0.004168391227722168
1763082723297603000,4.25460302734375,-0.025745391845703125,-0.0006950423121452332,0.005137912929058075
1763082723302603000,4.25960302734375,-0.025775909423828125,-0.005378589034080505,0.014939974993467331
1763082723307603000,4.26460302734375,-0.033583641052246094,0.005327753722667694,0.00747598335146904
1763082723312603000,4.269602783203125,-0.023792266845703125,-0.007289960980415344,0.003431357443332672
1763082723317603000,4.27460302734375,-0.013953208923339844,-0.0004999637603759766,0.003299068659543991
1763082723322603000,4.27960302734375,-0.035933494567871094,0.0017575770616531372,0.005399718880653381
1763082723327603000,4.28460302734375,-0.02759075164794922,-0.006641209125518799,-0.005257658660411835
1763082723332603000,4.289602783203125,-0.032057762145996094,0.007568284869194031,0.005549579858779907
1763082723337603000,4.29460302734375,-0.010875701904296875,0.006748683750629425,0.010470788925886154
1763082723342603000,4.29960302734375,-0.020209312438964844,0.0023318156599998474,0.011745445430278778
1763082723347603000,4.30460302734375,-0.028220176696777344,0.005598023533821106,-0.000973433256149292
1763082723352603000,4.309602783203125,-0.023893356323242188,-0.004893772304058075,0.006510093808174133
1763082723357603000,4.31460302734375,-0.012347221374511719,0.003610663115978241,0.013499122112989426
1763082723362603000,4.31960302734375,-0.02416706085205078,0.0014922544360160828,0.008805256336927414
1763082723367603000,4.32460302734375,-0.030694961547851562,-0.005361087620258331,0.014277398586273193
1763082723372603000,4.329602783203125,-0.023283004760742188,-0.0020984038710594177,0.011599652469158173
1763082723377603000,4.33460302734375,-0.0312042236328125,0.0017072632908821106,0.004150785505771637
1763082723382603000,4.33960302734375,-0.03162860870361328,-0.006270810961723328,0.003971189260482788
1763082723387603000,4.34460302734375,-0.034061431884765625,-0.0023617148399353027,0.005530558526515961
1763082723392603000,4.349602783203125,-0.02503490447998047,0.00413280725479126,0.005515720695257187
1763082723397603000,4.35460302734375,-0.01953411102294922,-0.0026060789823532104,0.01439453661441803
1763082723402603000,4.35960302734375,-0.02530384063720703,0.004645414650440216,0.007267005741596222
1763082723407603000,4.36460302734375,-0.03159046173095703,0.007017195224761963,0.006734617054462433
1763082723412603000,4.369602783203125,-0.027709007263183594,0.004132896661758423,0.004320003092288971
1763082723417603000,4.37460302734375,-0.02806377410888672,-0.011300548911094666,0.007151953876018524
1763082723422603000,4.37960302734375,-0.026618003845214844,-0.00006689876317977905,0.006893076002597809
1763082723427603000,4.38460302734375,-0.04041290283203125,-0.0009723007678985596,-0.0026698410511016846
1763082723432603000,4.389602783203125,-0.029809951782226562,0.0013333037495613098,0.010607168078422546
1763082723437603000,4.39460302734375,-0.03164482116699219,0.0039709508419036865,0.01171736791729927
1763082723442603000,4.39960302734375,-0.02799701690673828,-0.0007322654128074646,-0.005011938512325287
1763082723447603000,4.40460302734375,-0.02225780487060547,-0.002871982753276825,0.004765268415212631
1763082723452603000,4.409602783203125,-0.033008575439453125,-0.00266902893781662,0.01082010567188263
1763082723457603000,4.41460302734375,-0.021857261657714844,-0.011186383664608002,0.010143060237169266
1763082723462603000,4.41960302734375,-0.02742290496826172,-0.0017252564430236816,0.016924362629652023
1763082723467603000,4.42460302734375,-0.027462005615234375,0.0022145062685012817,0.0021515823900699615
1763082723472603000,4.429602783203125,-0.02902507781982422,-0.007028490304946899,0.0112917460501194
1763082723477603000,4.43460302734375,-0.02634143829345703,0.0023949220776557922,0.006963003426790237
1763082723482603000,4.43960302734375,-0.0321502685546875,0.00443161278963089,0.009413328021764755
1763082723487603000,4.44460302734375,-0.03171730041503906,0.006772205233573914,0.007086556404829025
1763082723492603000,4.449602783203125,-0.02764892578125,0.0018578693270683289,0.0019571445882320404
1763082723497603000,4.45460302734375,-0.038460731506347656,-0.003745339810848236,0.006983619183301926
1763082723502603000,4.45960302734375,-0.02266407012939453,0.004138074815273285,0.007504630833864212
1763082723507603000,4.46460302734375,-0.03330516815185547,-0.0018690824508666992,0.005217984318733215
1763082723512603000,4.469602783203125,-0.030733108520507812,0.0013123303651809692,0.003997724503278732
1763082723517603000,4.47460302734375,-0.031477928161621094,0.00004684180021286011,0.010686919093132019
1763082723522603000,4.47960302734375,-0.030115127563476562,0.00006312131881713867,0.01000213623046875
1763082723527603000,4.48460302734375,-0.04161643981933594,0.0017913058400154114,0.0076568759977817535
1763082723532603000,4.489602783203125,-0.027868270874023438,0.001188911497592926,0.005467697978019714
1763082723537603000,4.49460302734375,-0.03174877166748047,0.007759198546409607,0.008875750005245209
1763082723542603000,4.49960302734375,-0.02570819854736328,0.009579472243785858,0.0034120678901672363
1763082723547603000,4.50460302734375,-0.022233963012695312,0.010950304567813873,0.005513712763786316
1763082723552603000,4.509602783203125,-0.021767616271972656,-0.010656289756298065,0.005426749587059021
1763082723557603000,4.51460302734375,-0.032746315002441406,0.0023305565118789673,0.008214741945266724
1763082723562603000,4.51960302734375,-0.022276878356933594,-0.008478470146656036,0.004240732640028
1763082723567603000,4.52460302734375,-0.021966934204101562,-0.003910161554813385,0.01322546973824501
1763082723572603000,4.529602783203125,-0.015329360961914062,-0.003906242549419403,0.007884830236434937
1763082723577603000,4.53460302734375,-0.008708000183105469,-0.0014927610754966736,0.01183035597205162
1763082723582603000,4.53960302734375,-0.016004562377929688,-0.0015069246292114258,0.005250897258520126
1763082723587603000,4.54460302734375,-0.02205657958984375,0.005067184567451477,0.0016341544687747955
1763082723592603000,4.549602783203125,-0.025053977966308594,0.009348209947347641,0.008217483758926392
1763082723597603000,4.55460302734375,-0.03242206573486328,-0.0007297322154045105,0.007299996912479401
1763082723602603000,4.55960302734375,-0.030548095703125,-0.0023080483078956604,-0.0000718235969543457
1763082723607603000,4.56460302734375,-0.018619537353515625,0.006165161728858948,0.00151163712143898
1763082723612603000,4.569602783203125,-0.031169891357421875,0.003196895122528076,0.006137367337942123
1763082723617603000,4.57460302734375,-0.02072620391845703,-0.00020451098680496216,0.01000281423330307
1763082723622603000,4.57960302734375,-0.019683837890625,-0.007213577628135681,0.0029909610748291016
1763082723627603000,4.58460302734375,-0.03502178192138672,-0.005006849765777588,0.018154576420783997
1763082723632603000,4.589602783203125,-0.027570724487304688,-0.003107503056526184,0.011406131088733673
1763082723637603000,4.59460302734375,-0.028165817260742188,0.0017366483807563782,0.006367526948451996
1763082723642603000,4.59960302734375,-0.02743053436279297,0.003420010209083557,0.006491370499134064
1763082723647603000,4.60460302734375,-0.03236961364746094,-0.00017996877431869507,0.008744832128286362
1763082723652603000,4.609602783203125,-0.0418243408203125,-0.001959890127182007,-0.002311673015356064
1763082723657603000,4.61460302734375,-0.037250518798828125,-0.004811502993106842,0.008904360234737396
1763082723662603000,4.61960302734375,-0.03203773498535156,-0.0003314763307571411,0.006607800722122192
1763082723667603000,4.62460302734375,-0.02738475799560547,0.00011152029037475586,0.012911159545183182
1763082723672603000,4.629602783203125,-0.019349098205566406,-0.009913809597492218,0.013409961014986038
1763082723677603000,4.63460302734375,-0.012541770935058594,0.0001245066523551941,0.011588450521230698
1763082723682603000,4.63960302734375,-0.022909164428710938,-0.0000075623393058776855,0.009558748453855515
1763082723687603000,4.64460302734375,-0.03523731231689453,0.011856324970722198,0.0061518289148807526
1763082723692603000,4.649602783203125,-0.01171112060546875,-0.0048287734389305115,0.011727094650268555
1763082723697603000,4.65460302734375,-0.024727821350097656,-0.002757556736469269,0.007966391742229462
1763082723702603000,4.65960302734375,-0.017518997192382812,-0.0012351050972938538,0.006567981094121933
1763082723707603000,4.66460302734375,-0.026361465454101562,0.011665351688861847,0.004751857370138168
1763082723712603000,4.669602783203125,-0.01992511749267578,-0.0018433928489685059,0.007065951824188232
1763082723717603000,4.67460302734375,-0.02268218994140625,-0.002324707806110382,0.001270398497581482
1763082723722603000,4.67960302734375,-0.03091144561767578,-0.003209806978702545,0.005430694669485092
1763082723727603000,4.68460302734375,-0.0259552001953125,-0.004065074026584625,0.007463641464710236
1763082723732603000,4.689602783203125,-0.029422760009765625,0.003548949956893921,0.01420297846198082
1763082723737603000,4.69460302734375,-0.021577835083007812,0.0037364810705184937,0.005161669105291367
1763082723742603000,4.69960302734375,-0.03089618682861328,-0.0010631531476974487,0.012855738401412964
1763082723747603000,4.70460302734375,-0.03026103973388672,0.005455762147903442,0.016377244144678116
1763082723752603000,4.709602783203125,-0.022683143615722656,-0.002436414361000061,0.007176470011472702
1763082723757603000,4.71460302734375,-0.021760940551757812,0.006422653794288635,0.010987304151058197
1763082723762603000,4.71960302734375,-0.0162506103515625,0.002830974757671356,0.007989194244146347
1763082723767603000,4.72460302734375,-0.016040802001953125,0.010523732751607895,0.010368667542934418
1763082723772603000,4.729602783203125,-0.029672622680664062,-0.002802424132823944,0.0042274706065654755
1763082723777603000,4.73460302734375,-0.024827957153320312,0.01047562062740326,0.017020467668771744
1763082723782603000,4.73960302734375,-0.029854774475097656,-0.0016561821103096008,0.00404541939496994
1763082723787603000,4.74460302734375,-0.018637657165527344,-0.006325267255306244,0.008354179561138153
1763082723792603000,4.749602783203125,-0.024626731872558594,-0.0006543397903442383,0.005694393068552017
1763082723797603000,4.75460302734375,-0.028669357299804688,-0.006272077560424805,0.006317939609289169
1763082723802603000,4.75960302734375,-0.030922889709472656,-0.0018279403448104858,0.0004429928958415985
1763082723807603000,4.76460302734375,-0.03546428680419922,0.005365408957004547,0.0051112547516822815
1763082723812603000,4.769602783203125,-0.019326210021972656,-0.005109615623950958,0.006657224148511887
1763082723817603000,4.77460302734375,-0.028900146484375,0.0015650317072868347,0.011954076588153839
1763082723822603000,4.77960302734375,-0.020528793334960938,0.006900966167449951,0.006620045751333237
1763082723827603000,4.78460302734375,-0.025780677795410156,0.011316291987895966,0.007341396063566208
1763082723832603000,4.789602783203125,-0.021907806396484375,-0.0035631507635116577,0.006241127848625183
1763082723837603000,4.79460302734375,-0.02123260498046875,0.0032912343740463257,0.0045657679438591
1763082723842603000,4.79960302734375,-0.016031265258789062,-0.004135876893997192,0.011788208037614822
1763082723847603000,4.80460302734375,-0.01833057403564453,-0.0037331953644752502,0.002858918160200119
1763082723852603000,4.809602783203125,-0.020322799682617188,0.00040008872747421265,0.004933100193738937
1763082723857603000,4.81460302734375,-0.01761627197265625,-0.0009768083691596985,0.007012754678726196
1763082723862603000,4.81960302734375,-0.02850055694580078,0.000700637698173523,0.004868149757385254
1763082723867603000,4.82460302734375,-0.020873069763183594,-0.003024481236934662,-0.0007985904812812805
1763082723872603000,4.829602783203125,-0.015524864196777344,0.00029283761978149414,0.0052914805710315704
1763082723877603000,4.83460302734375,-0.015471458435058594,0.001014605164527893,0.004127152264118195
1763082723882603000,4.83960302734375,-0.015898704528808594,0.0009337142109870911,0.005400504916906357
1763082723887603000,4.84460302734375,-0.012188911437988281,-0.002636142075061798,0.004911825060844421
1763082723892603000,4.849602783203125,-0.014651298522949219,0.0027819350361824036,0.01212153211236
1763082723897603000,4.85460302734375,-0.01715373992919922,0.004521824419498444,0.011527333408594131
1763082723902603000,4.85960302734375,-0.0072689056396484375,-0.011572368443012238,0.011418759822845459
1763082723907603000,4.86460302734375,-0.017721176147460938,0.0032229796051979065,0.005248822271823883
1763082723912603000,4.869602783203125,-0.015260696411132812,-0.0018712058663368225,0.019767407327890396
1763082723917603000,4.87460302734375,-0.014677047729492188,-0.0024029389023780823,-0.0001672804355621338
1763082723922603000,4.87960302734375,-0.00997161865234375,-0.005851097404956818,0.006532229483127594
1763082723927603000,4.88460302734375,-0.018004417419433594,-0.006283804774284363,0.004333525896072388
1763082723932603000,4.889602783203125,-0.019928932189941406,0.006829865276813507,-0.004581674933433533
1763082723937603000,4.89460302734375,-0.0017843246459960938,-0.0014582648873329163,0.016623523086309433
1763082723942603000,4.89960302734375,-0.0090179443359375,0.00542951375246048,0.017163675278425217
1763082723947603000,4.90460302734375,-0.004450798034667969,-0.003854796290397644,0.005272343754768372
1763082723952603000,4.909602783203125,-0.0120086669921875,0.0048256441950798035,0.0022289901971817017
1763082723957603000,4.91460302734375,-0.0172882080078125,0.0010271668434143066,0.013306252658367157
1763082723962603000,4.91960302734375,-0.013055801391601562,-0.007930576801300049,0.003982730209827423
1763082723967603000,4.92460302734375,-0.0012683868408203125,0.004473231732845306,0.003533795475959778
1763082723972603000,4.929602783203125,-0.0016126632690429688,0.0011183694005012512,0.016206759959459305
1763082723977603000,4.93460302734375,-0.0036525726318359375,0.004004456102848053,0.006701495498418808
1763082723982603000,4.93960302734375,-0.0043621063232421875,-0.005998000502586365,0.015643246471881866
1763082723987603000,4.94460302734375,-0.0015401840209960938,0.004477255046367645,0.007007066160440445
1763082723992603000,4.949602783203125,-0.0075778961181640625,0.0008295252919197083,0.007259022444486618
1763082723997603000,4.95460302734375,-0.015078544616699219,0.0009671449661254883,-0.00230533629655838
1763082724002603000,4.95960302734375,-0.010220527648925781,-0.004957757890224457,0.014356154948472977
1763082724007603000,4.96460302734375,-0.010053634643554688,0.0008959844708442688,0.015589680522680283
1763082724012603000,4.969602783203125,-0.0016355514526367188,-0.0005032941699028015,0.006056059151887894
1763082724017603000,4.97460302734375,-0.007350921630859375,-0.008790247142314911,0.0054273828864097595
1763082724022603000,4.97960302734375,-0.0010461807250976562,-0.004149295389652252,0.005931086838245392
1763082724027603000,4.98460302734375,-0.0041751861572265625,-0.00002183765172958374,0.006518129259347916
1763082724032603000,4.989602783203125,-0.007626533508300781,-0.00019549578428268433,0.002711791545152664
1763082724037603000,4.99460302734375,-0.000141143798828125,0.005704537034034729,0.009290792047977448
1763082724042603000,4.99960302734375,-0.0027627944946289062,-0.006553642451763153,0.0015532784163951874
1763082724047603000,5.00460302734375,-0.010699272155761719,0.0003408491611480713,0.005030382424592972
1763082724052603000,5.009602783203125,0.0011835098266601562,0.0032604560256004333,0.0063722990453243256
1763082724057603000,5.01460302734375,-0.0032138824462890625,0.0008185431361198425,0.005893934518098831
1763082724062603000,5.01960302734375,0.002040863037109375,0.005224831402301788,0.003098081797361374
1763082724067603000,5.02460302734375,-0.0005102157592773438,0.0008458346128463745,0.007137469947338104
1763082724072603000,5.029602783203125,-0.00240325927734375,-0.003765188157558441,0.011580318212509155
1763082724077603000,5.03460302734375,-0.0002231597900390625,-0.0012302696704864502,0.00476234033703804
1763082724082603000,5.03960302734375,-0.010272979736328125,0.001750461757183075,-0.0013507865369319916
1763082724087603000,5.04460302734375,0.007404327392578125,-0.006267860531806946,0.01106468215584755
1763082724092603000,5.049602783203125,0.00467681884765625,-0.003183320164680481,0.005504284054040909
1763082724097603000,5.05460302734375,-0.0035943984985351562,-0.0003669634461402893,0.009861461818218231
1763082724102603000,5.05960302734375,0.004286766052246094,0.000004708766937255859,0.0020894408226013184
1763082724107603000,5.06460302734375,-0.005585670471191406,-0.009284041821956635,0.006219431757926941
1763082724112603000,5.069602783203125,0.0041179656982421875,-0.009415701031684875,0.012008283287286758
1763082724117603000,5.07460302734375,0.011046409606933594,-0.0021161511540412903,0.001837506890296936
1763082724122603000,5.07960302734375,0.0044994354248046875,-0.0019495338201522827,0.011825695633888245
1763082724127603000,5.08460302734375,0.0025959014892578125,-0.0035998672246932983,0.007791340351104736
1763082724132603000,5.089602783203125,0.004860877990722656,0.00004156678915023804,0.0028179101645946503
1763082724137603000,5.09460302734375,-0.0014104843139648438,-0.005338683724403381,0.001931454986333847
1763082724142603000,5.09960302734375,-0.0024776458740234375,-0.010902069509029388,0.005049597471952438
1763082724147603000,5.10460302734375,0.0012645721435546875,0.0023679807782173157,0.01044033095240593
1763082724152603000,5.109602783203125,-0.0025892257690429688,0.0012125149369239807,0.00729767233133316
1763082724157603000,5.11460302734375,0.004150390625,0.007144421339035034,0.0008422285318374634
1763082724162603000,5.11960302734375,0.008451461791992188,0.0015215501189231873,0.002515103667974472
1763082724167603000,5.12460302734375,0.0024137496948242188,0.0006080567836761475,0.006624002009630203
1763082724172603000,5.129602783203125,-0.009427070617675781,0.010133616626262665,0.004533909261226654
1763082724177603000,5.13460302734375,0.0028285980224609375,-0.0024389922618865967,0.012278947979211807
1763082724182603000,5.13960302734375,-0.003993034362792969,-0.0024324730038642883,0.0061204396188259125
1763082724187603000,5.14460302734375,-0.0026912689208984375,0.00920308381319046,0.012806672602891922
1763082724192603000,5.149602783203125,0.007309913635253906,0.005378931760787964,0.00442708283662796
1763082724197603000,5.15460302734375,-0.004183769226074219,0.0037633031606674194,0.007439199835062027
1763082724202603000,5.15960302734375,0.0072231292724609375,0.009692784398794174,-0.003950800746679306
1763082724207603000,5.16460302734375,0.0005474090576171875,-0.0013322830200195312,0.006269186735153198
1763082724212603000,5.169602783203125,0.009669303894042969,0.004937782883644104,0.012616034597158432
1763082724217603000,5.17460302734375,-0.0056171417236328125,-0.0009325221180915833,0.007129941135644913
1763082724222603000,5.17960302734375,-0.004276275634765625,0.0053787752985954285,0.001043912023305893
1763082724227603000,5.18460302734375,-0.006308555603027344,-0.0011930838227272034,0.012005370110273361
1763082724232603000,5.189602783203125,-0.0034027099609375,0.0036288276314735413,0.009136736392974854
1763082724237603000,5.19460302734375,0.0014047622680664062,-0.0017917454242706299,0.004378311336040497
1763082724242603000,5.19960302734375,-0.0038290023803710938,-0.0012629404664039612,0.006065525114536285
1763082724247603000,5.20460302734375,-0.0054721832275390625,0.0023751556873321533,0.0037661753594875336
1763082724252603000,5.209602783203125,0.015590667724609375,-0.008135013282299042,0.0059408508241176605
1763082724257603000,5.21460302734375,0.0037641525268554688,-0.008975028991699219,0.012585669755935669
1763082724262603000,5.21960302734375,0.006356239318847656,0.002240590751171112,0.010285913944244385
1763082724267603000,5.22460302734375,0.00128936767578125,-0.0024918392300605774,0.0030384361743927
1763082724272603000,5.229602783203125,0.00598907470703125,0.005188219249248505,0.005957558751106262
1763082724277603000,5.23460302734375,0.0009632110595703125,-0.004361473023891449,0.00863095372915268
1763082724282603000,5.23960302734375,0.009503364562988281,0.0009760558605194092,0.00812453031539917
1763082724287603000,5.24460302734375,0.0032205581665039062,0.012977968901395798,0.008155044168233871
1763082724292603000,5.249602783203125,0.004269599914550781,-0.005070701241493225,0.013536632061004639
1763082724297603000,5.25460302734375,0.002948760986328125,0.0029445812106132507,0.015278168022632599
1763082724302603000,5.25960302734375,0.0023365020751953125,0.0030655711889266968,0.013157553970813751
1763082724307603000,5.26460302734375,-0.0027408599853515625,-0.004121623933315277,0.018717337399721146
1763082724312603000,5.269602783203125,0.0059413909912109375,-0.0018763616681098938,0.0073126330971717834
1763082724317603000,5.27460302734375,0.0031585693359375,-0.002887718379497528,0.007856328040361404
1763082724322603000,5.27960302734375,-0.006028175354003906,-0.001054324209690094,0.001292489469051361
1763082724327603000,5.28460302734375,0.0014896392822265625,0.0011943727731704712,0.015406154096126556
1763082724332603000,5.289602783203125,-0.007633209228515625,0.00029253214597702026,0.01068200170993805
1763082724337603000,5.29460302734375,0.007134437561035156,-0.0075640082359313965,0.007306881248950958
1763082724342603000,5.29960302734375,-0.0013828277587890625,0.004972346127033234,0.014619015157222748
1763082724347603000,5.30460302734375,0.0002841949462890625,0.00236298143863678,0.007112670689821243
1763082724352603000,5.309602783203125,0.0003681182861328125,0.004905685782432556,0.012816600501537323
1763082724357603000,5.31460302734375,-0.0025539398193359375,0.0007223188877105713,0.008160721510648727
1763082724362603000,5.31960302734375,0.0002803802490234375,-0.0075781866908073425,0.004435054957866669
1763082724367603000,5.32460302734375,-0.012907028198242188,-0.002479836344718933,0.0007055103778839111
1763082724372603000,5.329602783203125,-0.008022308349609375,-0.0004887133836746216,0.013812646269798279
1763082724377603000,5.33460302734375,-0.010497093200683594,0.008009780198335648,0.002765107899904251
1763082724382603000,5.33960302734375,-0.010036468505859375,-0.001006290316581726,0.005816332995891571
1763082724387603000,5.34460302734375,0.0020112991333007812,-0.003343254327774048,0.006533168256282806
1763082724392603000,5.349602783203125,0.005078315734863281,-0.004546023905277252,0.0032365210354328156
1763082724397603000,5.35460302734375,-0.0003376007080078125,-0.0010973885655403137,0.010789565742015839
1763082724402603000,5.35960302734375,-0.0007429122924804688,-0.005514569580554962,-0.0034274905920028687
1763082724407603000,5.36460302734375,-0.01636028289794922,-0.0010466128587722778,0.008955825120210648
1763082724412603000,5.369602783203125,-0.004515647888183594,0.0022368505597114563,0.012938980013132095
1763082724417603000,5.37460302734375,-0.008259773254394531,0.0002147480845451355,0.005253203213214874
1763082724422603000,5.37960302734375,-0.002559661865234375,0.0008779317140579224,0.0055147260427474976
1763082724427603000,5.38460302734375,-0.009583473205566406,-0.0005254372954368591,0.002510860562324524
1763082724432603000,5.389602783203125,-0.0049114227294921875,0.005325905978679657,-0.004815824329853058
1763082724437603000,5.39460302734375,-0.008759498596191406,0.00311867892742157,0.004557233303785324
1763082724442603000,5.39960302734375,0.002777099609375,0.006236381828784943,0.008297447115182877
1763082724447603000,5.40460302734375,-0.00353240966796875,0.008465602993965149,0.01138659194111824
1763082724452603000,5.409602783203125,-0.0007266998291015625,-0.002264373004436493,0.013459764420986176
1763082724457603000,5.41460302734375,-0.006783485412597656,-0.006183341145515442,0.0010960288345813751
1763082724462603000,5.41960302734375,-0.004528999328613281,-0.001720242202281952,0.009118352085351944
1763082724467603000,5.42460302734375,-0.011867523193359375,0.00600770115852356,0.005531679838895798
1763082724472603000,5.429602783203125,-0.011134147644042969,0.004259757697582245,0.010242532938718796
1763082724477603000,5.43460302734375,-0.0032396316528320312,-0.005479253828525543,0.006625927984714508
1763082724482603000,5.43960302734375,-0.000888824462890625,0.0024498552083969116,-0.002831175923347473
1763082724487603000,5.44460302734375,-0.003935813903808594,-0.000010035932064056396,0.006021294742822647
1763082724492603000,5.449602783203125,-0.00026798248291015625,0.0035432353615760803,0.0065550729632377625
1763082724497603000,5.45460302734375,0.0022897720336914062,0.012257173657417297,0.02244764193892479
1763082724502603000,5.45960302734375,-0.0067882537841796875,-0.0026125535368919373,0.008301176130771637
1763082724507603000,5.46460302734375,-0.009575843811035156,0.009320087730884552,0.0038724802434444427
1763082724512603000,5.469602783203125,-0.0035552978515625,-0.007587023079395294,0.009295180439949036
1763082724517603000,5.47460302734375,0.0030345916748046875,0.004388377070426941,0.0005916357040405273
1763082724522603000,5.47960302734375,-0.0057659149169921875,0.006231449544429779,0.012717027217149734
1763082724527603000,5.48460302734375,0.0007839202880859375,-0.007211498916149139,0.008842270821332932
1763082724532603000,5.489602783203125,0.001708984375,-0.0038715749979019165,0.0024564340710639954
1763082724537603000,5.49460302734375,-0.0040073394775390625,-0.006299860775470734,0.008430920541286469
1763082724542603000,5.49960302734375,-0.004374504089355469,0.002415701746940613,0.008581720292568207
1763082724547603000,5.50460302734375,-0.0010318756103515625,-0.0021756812930107117,-0.0023816674947738647
1763082724552603000,5.509602783203125,-0.0030059814453125,0.000851459801197052,0.006294600665569305
1763082724557603000,5.51460302734375,-0.0014095306396484375,-0.0029100775718688965,0.003261953592300415
1763082724562603000,5.51960302734375,0.007630348205566406,0.004668228328227997,0.019387051463127136
1763082724567603000,5.52460302734375,-0.01053619384765625,-0.003717087209224701,0.014883007854223251
1763082724572603000,5.529602783203125,-0.0029354095458984375,-0.0055122971534729,0.00032765045762062073
1763082724577603000,5.53460302734375,-0.013699531555175781,0.00010229647159576416,0.0124315544962883
1763082724582603000,5.53960302734375,-0.005200386047363281,-0.003472238779067993,0.001177523285150528
1763082724587603000,5.54460302734375,-0.0074520111083984375,0.0019233524799346924,0.01072622463107109
1763082724592603000,5.549602783203125,0.0025835037231445312,-0.001016862690448761,0.005952809005975723
1763082724597603000,5.55460302734375,-0.005230903625488281,-0.0006102621555328369,-0.0029744990170001984
1763082724602603000,5.55960302734375,-0.007449150085449219,0.009929396212100983,0.0075825899839401245
1763082724607603000,5.56460302734375,-0.00016498565673828125,-0.0011325627565383911,0.011232882738113403
1763082724612603000,5.569602783203125,0.0024785995483398438,0.005573652684688568,0.00045407935976982117
1763082724617603000,5.57460302734375,0.006983757019042969,0.011163096874952316,-0.0013962313532829285
1763082724622603000,5.57960302734375,0.010873794555664062,0.0028198882937431335,0.002428915351629257
1763082724627603000,5.58460302734375,-0.0034799575805664062,-0.003789350390434265,0.009497474879026413
1763082724632603000,5.589602783203125,0.006800651550292969,-0.0073209404945373535,0.014683853834867477
1763082724637603000,5.59460302734375,0.0021104812622070312,0.0006459802389144897,0.009010795503854752
1763082724642603000,5.59960302734375,0.001560211181640625,0.00008999556303024292,0.0020645037293434143
1763082724647603000,5.60460302734375,-0.004054069519042969,-0.00695393979549408,0.01810334622859955
1763082724652603000,5.609602783203125,0.00008296966552734375,-0.0022782087326049805,0.014192253351211548
1763082724657603000,5.61460302734375,-0.006137847900390625,-0.0072994232177734375,0.006490085273981094
1763082724662603000,5.61960302734375,-0.0021791458129882812,-0.0025893449783325195,0.002381209284067154
1763082724667603000,5.62460302734375,0.0006275177001953125,0.0013962164521217346,0.006032407283782959
1763082724672603000,5.629602783203125,0.011607170104980469,0.0006755217909812927,0.0076049454510211945
1763082724677603000,5.63460302734375,0.0013275146484375,0.0028509944677352905,0.014421995729207993
1763082724682603000,5.63960302734375,0.006482124328613281,-0.001061864197254181,-0.0006292760372161865
1763082724687603000,5.64460302734375,-0.003490447998046875,-0.002420850098133087,0.015549726784229279
1763082724692603000,5.649602783203125,0.0002422332763671875,0.004795551300048828,0.0019336454570293427
1763082724697603000,5.65460302734375,0.0070781707763671875,-0.0016629695892333984,0.009823769330978394
1763082724702603000,5.65960302734375,-0.0012063980102539062,0.010701049119234085,0.014918148517608643
1763082724707603000,5.66460302734375,-0.010667800903320312,0.007643360644578934,0.003603849560022354
1763082724712603000,5.669602783203125,-0.007515907287597656,0.0028725042939186096,0.005372829735279083
1763082724717603000,5.67460302734375,0.0025987625122070312,0.0006845071911811829,0.007788404822349548
1763082724722603000,5.67960302734375,-0.0024890899658203125,-0.0038679838180541992,0.0031249336898326874
1763082724727603000,5.68460302734375,0.0035657882690429688,0.014915905892848969,0.009262997657060623
1763082724732603000,5.689602783203125,-0.009242057800292969,0.007870107889175415,0.014637477695941925
1763082724737603000,5.69460302734375,0.011366844177246094,-0.005476169288158417,0.008820891380310059
1763082724742603000,5.69960302734375,0.010449409484863281,-0.0037516355514526367,0.0065599121153354645
1763082724747603000,5.70460302734375,0.009332656860351562,-0.0003271028399467468,-0.004068691283464432
1763082724752603000,5.709602783203125,-0.0030469894409179688,-0.011309683322906494,0.0046409666538238525
1763082724757603000,5.71460302734375,0.0064296722412109375,0.001257285475730896,0.004726707935333252
1763082724762603000,5.71960302734375,-0.004238128662109375,-0.0005887895822525024,0.018008936196565628
1763082724767603000,5.72460302734375,0.004708290100097656,-0.012750871479511261,0.004586748778820038
1763082724772603000,5.729602783203125,0.0009021759033203125,-0.00558982789516449,0.00739385187625885
1763082724777603000,5.73460302734375,0.0058765411376953125,-0.0011326521635055542,0.011518191546201706
1763082724782603000,5.73960302734375,0.0006847381591796875,-0.0030628442764282227,0.009748771786689758
1763082724787603000,5.74460302734375,0.0010385513305664062,-0.006717346608638763,0.006722640246152878
1763082724792603000,5.749602783203125,0.00518035888671875,0.003116801381111145,0.0052161142230033875
1763082724797603000,5.75460302734375,-0.0030012130737304688,0.002207063138484955,0.0015784353017807007
1763082724802603000,5.75960302734375,-0.0033922195434570312,-0.00030834972858428955,0.015447765588760376
1763082724807603000,5.76460302734375,-0.00045299530029296875,0.006406933069229126,-0.00043555721640586853
1763082724812603000,5.769602783203125,0.0062808990478515625,0.005887195467948914,-0.0017782598733901978
1763082724817603000,5.77460302734375,0.0058460235595703125,0.0026610344648361206,-0.0011388882994651794
1763082724822603000,5.77960302734375,-0.006842613220214844,-0.0050225630402565,0.007610265165567398
1763082724827603000,5.78460302734375,0.014669418334960938,0.003925003111362457,0.011692699044942856
1763082724832603000,5.789602783203125,-0.008425712585449219,0.001534484326839447,-0.0008188225328922272
1763082724837603000,5.79460302734375,0.00469207763671875,-0.0038417577743530273,0.012852240353822708
1763082724842603000,5.79960302734375,0.000370025634765625,0.007232896983623505,0.015813104808330536
1763082724847603000,5.80460302734375,0.0003032684326171875,0.0015623271465301514,0.009132813662290573
1763082724852603000,5.809602783203125,-0.005936622619628906,-0.00011835992336273193,0.005870386958122253
1763082724857603000,5.81460302734375,-0.0029096603393554688,-0.0019471198320388794,0.008637465536594391
1763082724862603000,5.81960302734375,-0.0017242431640625,-0.001971118152141571,0.0075807757675647736
1763082724867603000,5.82460302734375,0.0069293975830078125,-0.0034965425729751587,0.009769279509782791
1763082724872603000,5.829602783203125,0.005291938781738281,-0.0038711652159690857,0.0029156282544136047
1763082724877603000,5.83460302734375,0.012000083923339844,0.0002910345792770386,0.01803658902645111
1763082724882603000,5.83960302734375,0.0050449371337890625,0.0019781067967414856,0.014213379472494125
1763082724887603000,5.84460302734375,0.0060482025146484375,-0.001673974096775055,0.00058693066239357
1763082724892603000,5.849602783203125,-0.0056285858154296875,0.001051090657711029,0.002354305237531662
1763082724897603000,5.85460302734375,-0.0007829666137695312,-0.0009894147515296936,0.012743651866912842
1763082724902603000,5.85960302734375,-0.007756233215332031,-0.00200837105512619,-0.001840047538280487
1763082724907603000,5.86460302734375,0.0003757476806640625,0.002815745770931244,0.007602762430906296
1763082724912603000,5.869602783203125,-0.0035429000854492188,-0.0011993274092674255,0.010899432003498077
1763082724917603000,5.87460302734375,0.0020904541015625,-0.002546362578868866,0.009856313467025757
1763082724922603000,5.87960302734375,0.00028324127197265625,-0.0070091187953948975,0.012266062200069427
1763082724927603000,5.88460302734375,0.00426483154296875,0.002912268042564392,0.010479431599378586
1763082724932603000,5.889602783203125,0.00494384765625,-0.0047516897320747375,-0.0009094178676605225
1763082724937603000,5.89460302734375,0.0035572052001953125,0.000716283917427063,0.006366770714521408
1763082724942603000,5.89960302734375,-0.0003604888916015625,-0.0018351748585700989,0.017101388424634933
1763082724947603000,5.90460302734375,0.0001773834228515625,0.009404569864273071,0.010009657591581345
1763082724952603000,5.909602783203125,0.0020933151245117188,0.005099721252918243,0.013710550963878632
1763082724957603000,5.91460302734375,-0.008456230163574219,0.0021928250789642334,0.00330391526222229
1763082724962603000,5.91960302734375,-0.003459930419921875,-0.006461493670940399,0.009399216622114182
1763082724967603000,5.92460302734375,-0.0080108642578125,0.0004170835018157959,0.00739656388759613
1763082724972603000,5.929602783203125,0.00312042236328125,-0.0019274652004241943,0.006969723850488663
1763082724977603000,5.93460302734375,-0.0024566650390625,0.0006517991423606873,0.00553072988986969
1763082724982603000,5.93960302734375,-0.00452423095703125,-0.006226740777492523,-0.005697235465049744
1763082724987603000,5.94460302734375,-0.0026674270629882812,-0.006573893129825592,0.007670313119888306
1763082724992603000,5.949602783203125,-0.0036220550537109375,0.0045565590262413025,0.014854498207569122
1763082724997603000,5.95460302734375,0.006821632385253906,0.002983890473842621,0.018436018377542496
1763082725002603000,5.95960302734375,-0.00029659271240234375,-0.006238788366317749,0.008202522993087769
1763082725007603000,5.96460302734375,-0.007754325866699219,-0.006180569529533386,-0.001446794718503952
1763082725012603000,5.969602783203125,-0.0020246505737304688,0.001712024211883545,-0.006564624607563019
1763082725017603000,5.97460302734375,-0.0006532669067382812,-0.004469558596611023,0.005323957651853561
1763082725022603000,5.97960302734375,-0.006751060485839844,0.003928288817405701,0.01068044826388359
1763082725027603000,5.98460302734375,-0.0025281906127929688,-0.00006806105375289917,0.005516551434993744
1763082725032603000,5.989602783203125,-0.004300117492675781,-0.007848553359508514,0.007817354053258896
1763082725037603000,5.99460302734375,0.0019330978393554688,-0.009267456829547882,0.007617086172103882
1763082725042603000,5.99960302734375,0.0010662078857421875,-0.004723027348518372,0.0052884891629219055
1763082725047603000,6.00460302734375,-0.014324188232421875,-0.0003449246287345886,0.01296139881014824
1763082725052603000,6.009602783203125,-0.0017538070678710938,0.0007972493767738342,0.0012285411357879639
1763082725057603000,6.01460302734375,-0.00011539459228515625,-0.005035512149333954,0.008734527975320816
1763082725062603000,6.01960302734375,-0.010699272155761719,-0.005591191351413727,0.006422035396099091
1763082725067603000,6.02460302734375,-0.006493568420410156,-0.0013859868049621582,-0.004814267158508301
1763082725072603000,6.029602783203125,0.0012578964233398438,-0.0026601478457450867,-0.004173804074525833
1763082725077603000,6.03460302734375,0.0036211013793945312,0.0005043819546699524,0.003014996647834778
1763082725082603000,6.03960302734375,0.0009059906005859375,-0.004438728094100952,0.013364776968955994
1763082725087603000,6.04460302734375,-0.013456344604492188,0.010848835110664368,0.007161702960729599
1763082725092603000,6.049602783203125,-0.0017347335815429688,0.001981183886528015,0.008151140064001083
1763082725097603000,6.05460302734375,-0.0008840560913085938,-0.0008328929543495178,0.006049949675798416
