time,seconds_elapsed,z,y,x
1763082719211175000,0.1681748046875,9.82640266418457,-0.058059390634298325,0.05925649031996727
1763082719213175300,0.17017529296875,9.840767860412598,-0.03890577703714371,0.05925649031996727
1763082719215176400,0.172176513671875,9.845556259155273,-0.053270988166332245,0.0736217051744461
1763082719217178400,0.174178466796875,9.835979461669922,-0.053270988166332245,0.06883329898118973
1763082719219181600,0.176181640625,9.835979461669922,-0.053270988166332245,0.05446808785200119
1763082719221185800,0.178185791015625,9.821614265441895,-0.04369417950510979,0.06883329898118973
1763082719223191800,0.18019189453125,9.831191062927246,-0.03411737456917763,0.05446808785200119
1763082719225197600,0.182197509765625,9.821614265441895,-0.048482585698366165,0.06404489278793335
1763082719227204900,0.184204833984375,9.831191062927246,-0.053270988166332245,0.05446808785200119
1763082719229214000,0.1862138671875,9.821614265441895,-0.053270988166332245,0.06883329898118973
1763082719231224300,0.188224365234375,9.821614265441895,-0.058059390634298325,0.04967968538403511
1763082719233236000,0.190236083984375,9.831191062927246,-0.048482585698366165,0.05446808785200119
1763082719235249000,0.192248779296875,9.835979461669922,-0.048482585698366165,0.05925649031996727
1763082719237262600,0.1942626953125,9.831191062927246,-0.0628477931022644,0.0736217051744461
1763082719239277000,0.196277099609375,9.835979461669922,-0.048482585698366165,0.05925649031996727
1763082719241292000,0.1982919921875,9.82640266418457,-0.04369417950510979,0.06883329898118973
1763082719243307000,0.20030712890625,9.831191062927246,-0.053270988166332245,0.06404489278793335
1763082719245319200,0.202319091796875,9.82640266418457,-0.053270988166332245,0.07841010391712189
1763082719247327700,0.20432763671875,9.82640266418457,-0.0628477931022644,0.06883329898118973
1763082719249336000,0.206336181640625,9.840767860412598,-0.058059390634298325,0.06404489278793335
1763082719251344600,0.2083447265625,9.845556259155273,-0.053270988166332245,0.05925649031996727
1763082719253353000,0.21035302734375,9.845556259155273,-0.053270988166332245,0.06883329898118973
1763082719255361300,0.212361328125,9.831191062927246,-0.053270988166332245,0.05446808785200119
1763082719257369900,0.214369873046875,9.821614265441895,-0.048482585698366165,0.06404489278793335
1763082719259378200,0.216378173828125,9.821614265441895,-0.058059390634298325,0.05925649031996727
1763082719261386800,0.21838671875,9.840767860412598,-0.04369417950510979,0.05925649031996727
1763082719263395000,0.22039501953125,9.831191062927246,-0.048482585698366165,0.04967968538403511
1763082719265403600,0.222403564453125,9.835979461669922,-0.04369417950510979,0.05925649031996727
1763082719267412000,0.224411865234375,9.845556259155273,-0.048482585698366165,0.05446808785200119
1763082719269420500,0.226420654296875,9.835979461669922,-0.0628477931022644,0.04967968538403511
1763082719271428900,0.228428955078125,9.840767860412598,-0.053270988166332245,0.0736217051744461
1763082719273437400,0.2304375,9.831191062927246,-0.048482585698366165,0.06404489278793335
1763082719275445800,0.23244580078125,9.840767860412598,-0.058059390634298325,0.06404489278793335
1763082719277454300,0.234454345703125,9.816825866699219,-0.03890577703714371,0.06404489278793335
1763082719279462700,0.236462646484375,9.807249069213867,-0.048482585698366165,0.04489128291606903
1763082719281471000,0.238470947265625,9.816825866699219,-0.048482585698366165,0.06404489278793335
1763082719283479600,0.2404794921875,9.835979461669922,-0.058059390634298325,0.06404489278793335
1763082719285487900,0.24248779296875,9.821614265441895,-0.03411737456917763,0.05925649031996727
1763082719287496400,0.244496337890625,9.835979461669922,-0.0293289702385664,0.05925649031996727
1763082719289504800,0.2465048828125,9.845556259155273,-0.048482585698366165,0.06404489278793335
1763082719291513300,0.248513427734375,9.831191062927246,-0.0628477931022644,0.06883329898118973
1763082719293521700,0.250521728515625,9.831191062927246,-0.04369417950510979,0.05925649031996727
1763082719295530200,0.2525302734375,9.821614265441895,-0.04369417950510979,0.04967968538403511
1763082719297538600,0.25453857421875,9.831191062927246,-0.058059390634298325,0.06404489278793335
1763082719299547100,0.256547119140625,9.816825866699219,-0.048482585698366165,0.0736217051744461
1763082719301555500,0.258555419921875,9.831191062927246,-0.0628477931022644,0.05925649031996727
1763082719303563800,0.260563720703125,9.840767860412598,-0.0628477931022644,0.06883329898118973
1763082719305572400,0.262572265625,9.821614265441895,-0.053270988166332245,0.06883329898118973
1763082719307580700,0.26458056640625,9.816825866699219,-0.03411737456917763,0.05925649031996727
1763082719309589200,0.26658935546875,9.835979461669922,-0.048482585698366165,0.07841010391712189
1763082719311597600,0.26859765625,9.835979461669922,-0.058059390634298325,0.06883329898118973
1763082719313606100,0.270606201171875,9.835979461669922,-0.0628477931022644,0.04967968538403511
1763082719315614500,0.272614501953125,9.831191062927246,-0.04369417950510979,0.06404489278793335
1763082719317623000,0.274623046875,9.831191062927246,-0.053270988166332245,0.03531447425484657
1763082719319631400,0.27663134765625,9.831191062927246,-0.058059390634298325,0.06883329898118973
1763082719321640000,0.278639892578125,9.821614265441895,-0.053270988166332245,0.05446808785200119
1763082719323648300,0.280648193359375,9.835979461669922,-0.053270988166332245,0.05925649031996727
1763082719325656800,0.28265673828125,9.840767860412598,-0.048482585698366165,0.06404489278793335
1763082719327665200,0.2846650390625,9.840767860412598,-0.058059390634298325,0.05446808785200119
1763082719329673500,0.286673583984375,9.835979461669922,-0.03890577703714371,0.05925649031996727
1763082719331682000,0.28868212890625,9.821614265441895,-0.058059390634298325,0.05925649031996727
1763082719333690400,0.2906904296875,9.831191062927246,-0.04369417950510979,0.06404489278793335
1763082719335699000,0.292698974609375,9.85034465789795,-0.048482585698366165,0.05925649031996727
1763082719337707300,0.294707275390625,9.821614265441895,-0.048482585698366165,0.05446808785200119
1763082719339715800,0.2967158203125,9.82640266418457,-0.03890577703714371,0.06883329898118973
1763082719341724200,0.29872412109375,9.821614265441895,-0.058059390634298325,0.05446808785200119
1763082719343732700,0.300732666015625,9.831191062927246,-0.048482585698366165,0.06404489278793335
1763082719345741000,0.302740966796875,9.82640266418457,-0.048482585698366165,0.06404489278793335
1763082719347749600,0.30474951171875,9.831191062927246,-0.053270988166332245,0.06883329898118973
1763082719349758000,0.306758056640625,9.835979461669922,-0.058059390634298325,0.06404489278793335
1763082719351766300,0.308766357421875,9.816825866699219,-0.04369417950510979,0.05925649031996727
1763082719353774800,0.31077490234375,9.845556259155273,-0.058059390634298325,0.06404489278793335
1763082719355783200,0.312783203125,9.831191062927246,-0.048482585698366165,0.05925649031996727
1763082719357791700,0.314791748046875,9.835979461669922,-0.048482585698366165,0.05925649031996727
1763082719359800000,0.316800048828125,9.840767860412598,-0.048482585698366165,0.0736217051744461
1763082719361808600,0.31880859375,9.845556259155273,-0.048482585698366165,0.0736217051744461
1763082719363817000,0.32081689453125,9.82640266418457,-0.04369417950510979,0.06404489278793335
1763082719365825500,0.322825439453125,9.816825866699219,-0.048482585698366165,0.06404489278793335
1763082719367833900,0.324833740234375,9.821614265441895,-0.048482585698366165,0.06883329898118973
1763082719369842400,0.326842529296875,9.821614265441895,-0.053270988166332245,0.06404489278793335
1763082719371850800,0.328850830078125,9.82640266418457,-0.053270988166332245,0.06404489278793335
1763082719373859300,0.330859375,9.821614265441895,-0.058059390634298325,0.06883329898118973
1763082719375867600,0.33286767578125,9.835979461669922,-0.058059390634298325,0.05925649031996727
1763082719377876000,0.3348759765625,9.835979461669922,-0.053270988166332245,0.05925649031996727
1763082719379884500,0.336884521484375,9.82640266418457,-0.053270988166332245,0.06883329898118973
1763082719381892900,0.338892822265625,9.831191062927246,-0.053270988166332245,0.06404489278793335
1763082719383901400,0.3409013671875,9.831191062927246,-0.03890577703714371,0.07841010391712189
1763082719385909800,0.34290966796875,9.835979461669922,-0.04369417950510979,0.06404489278793335
1763082719387918300,0.34491845703125,9.835979461669922,-0.04369417950510979,0.05446808785200119
1763082719389926700,0.3469267578125,9.840767860412598,-0.048482585698366165,0.05925649031996727
1763082719391935200,0.348935302734375,9.82640266418457,-0.03890577703714371,0.06404489278793335
1763082719393943600,0.350943603515625,9.835979461669922,-0.048482585698366165,0.06883329898118973
1763082719395952000,0.3529521484375,9.82640266418457,-0.058059390634298325,0.06883329898118973
1763082719397960400,0.35496044921875,9.831191062927246,-0.058059390634298325,0.06883329898118973
1763082719399969000,0.356968994140625,9.835979461669922,-0.058059390634298325,0.05446808785200119
1763082719401977300,0.358977294921875,9.835979461669922,-0.053270988166332245,0.06883329898118973
1763082719403985700,0.360985595703125,9.812037467956543,-0.048482585698366165,0.04010287672281265
1763082719405994200,0.362994140625,9.831191062927246,-0.053270988166332245,0.04967968538403511
1763082719408002600,0.36500244140625,9.835979461669922,-0.053270988166332245,0.05925649031996727
1763082719410011100,0.36701123046875,9.831191062927246,-0.058059390634298325,0.06883329898118973
1763082719412019500,0.36901953125,9.835979461669922,-0.0628477931022644,0.06883329898118973
1763082719414028000,0.371028076171875,9.831191062927246,-0.058059390634298325,0.06883329898118973
1763082719416036400,0.373036376953125,9.845556259155273,-0.048482585698366165,0.05925649031996727
1763082719418045000,0.375044921875,9.82640266418457,-0.048482585698366165,0.0736217051744461
1763082719420053200,0.37705322265625,9.835979461669922,-0.048482585698366165,0.04967968538403511
1763082719422061800,0.379061767578125,9.821614265441895,-0.04369417950510979,0.06883329898118973
1763082719424070100,0.381070068359375,9.840767860412598,-0.048482585698366165,0.05925649031996727
1763082719426078500,0.383078369140625,9.835979461669922,-0.0628477931022644,0.06404489278793335
1763082719428087000,0.385087158203125,9.82640266418457,-0.058059390634298325,0.05446808785200119
1763082719430095400,0.387095458984375,9.812037467956543,-0.04369417950510979,0.0736217051744461
1763082719432104000,0.38910400390625,9.831191062927246,-0.048482585698366165,0.06404489278793335
1763082719434112300,0.3911123046875,9.82640266418457,-0.048482585698366165,0.05446808785200119
1763082719436120800,0.393120849609375,9.831191062927246,-0.03890577703714371,0.04489128291606903
1763082719438129200,0.395129150390625,9.840767860412598,-0.053270988166332245,0.06883329898118973
1763082719440137700,0.3971376953125,9.82640266418457,-0.053270988166332245,0.05925649031996727
1763082719442146000,0.39914599609375,9.831191062927246,-0.058059390634298325,0.0736217051744461
1763082719444154600,0.401154541015625,9.82640266418457,-0.058059390634298325,0.06883329898118973
1763082719446163000,0.403162841796875,9.82640266418457,-0.053270988166332245,0.05446808785200119
1763082719448171500,0.405171630859375,9.831191062927246,-0.048482585698366165,0.0736217051744461
1763082719450179800,0.407179931640625,9.831191062927246,-0.048482585698366165,0.06883329898118973
1763082719452188200,0.409188232421875,9.82640266418457,-0.0628477931022644,0.06404489278793335
1763082719454196700,0.41119677734375,9.816825866699219,-0.058059390634298325,0.05925649031996727
1763082719456205000,0.413205078125,9.816825866699219,-0.04369417950510979,0.05925649031996727
1763082719458213600,0.415213623046875,9.831191062927246,-0.058059390634298325,0.05925649031996727
1763082719460222000,0.417221923828125,9.831191062927246,-0.048482585698366165,0.06404489278793335
1763082719462230500,0.41923046875,9.821614265441895,-0.053270988166332245,0.06883329898118973
1763082719464238800,0.42123876953125,9.821614265441895,-0.03890577703714371,0.04967968538403511
1763082719466247400,0.423247314453125,9.82640266418457,-0.058059390634298325,0.06404489278793335
1763082719468255700,0.425255859375,9.82640266418457,-0.058059390634298325,0.04967968538403511
1763082719470264300,0.427264404296875,9.845556259155273,-0.053270988166332245,0.05446808785200119
1763082719472272600,0.429272705078125,9.82640266418457,-0.048482585698366165,0.05446808785200119
1763082719474281000,0.431281005859375,9.82640266418457,-0.058059390634298325,0.06404489278793335
1763082719476289500,0.43328955078125,9.82640266418457,-0.04369417950510979,0.05925649031996727
1763082719478297900,0.4352978515625,9.821614265441895,-0.058059390634298325,0.06883329898118973
1763082719480306400,0.437306396484375,9.821614265441895,-0.058059390634298325,0.05446808785200119
1763082719482314800,0.439314697265625,9.85034465789795,-0.048482585698366165,0.05925649031996727
1763082719484323300,0.4413232421875,9.840767860412598,-0.058059390634298325,0.05925649031996727
1763082719486331600,0.44333154296875,9.812037467956543,-0.058059390634298325,0.06404489278793335
1763082719488340200,0.44534033203125,9.831191062927246,-0.053270988166332245,0.05446808785200119
1763082719490348500,0.4473486328125,9.821614265441895,-0.058059390634298325,0.05446808785200119
1763082719492357000,0.449357177734375,9.831191062927246,-0.058059390634298325,0.05925649031996727
1763082719494365400,0.451365478515625,9.831191062927246,-0.053270988166332245,0.06883329898118973
1763082719496374000,0.4533740234375,9.835979461669922,-0.04369417950510979,0.06404489278793335
1763082719498382300,0.45538232421875,9.840767860412598,-0.048482585698366165,0.06404489278793335
1763082719500390700,0.457390625,9.835979461669922,-0.058059390634298325,0.06883329898118973
1763082719502399200,0.459399169921875,9.82640266418457,-0.06763619929552078,0.05925649031996727
1763082719504407600,0.461407470703125,9.840767860412598,-0.0293289702385664,0.06404489278793335
1763082719506416000,0.463416015625,9.82640266418457,-0.058059390634298325,0.05446808785200119
1763082719508424400,0.465424560546875,9.835979461669922,-0.053270988166332245,0.05446808785200119
1763082719510433000,0.46743310546875,9.816825866699219,-0.053270988166332245,0.06883329898118973
1763082719512441300,0.46944140625,9.816825866699219,-0.048482585698366165,0.04967968538403511
1763082719514450000,0.471449951171875,9.812037467956543,-0.04369417950510979,0.06404489278793335
1763082719516458200,0.473458251953125,9.816825866699219,-0.048482585698366165,0.04967968538403511
1763082719518466800,0.475466796875,9.831191062927246,-0.03411737456917763,0.05925649031996727
1763082719520475100,0.47747509765625,9.821614265441895,-0.048482585698366165,0.05446808785200119
1763082719522483700,0.479483642578125,9.821614265441895,-0.053270988166332245,0.06404489278793335
1763082719524492000,0.481491943359375,9.821614265441895,-0.0628477931022644,0.04489128291606903
1763082719526500400,0.483500244140625,9.82640266418457,-0.04369417950510979,0.06883329898118973
1763082719528509000,0.485509033203125,9.831191062927246,-0.04369417950510979,0.0736217051744461
1763082719530517200,0.487517333984375,9.821614265441895,-0.048482585698366165,0.05446808785200119
1763082719532525800,0.48952587890625,9.82640266418457,-0.048482585698366165,0.04489128291606903
1763082719534534100,0.4915341796875,9.82640266418457,-0.048482585698366165,0.05925649031996727
1763082719536542700,0.493542724609375,9.831191062927246,-0.048482585698366165,0.05446808785200119
1763082719538551000,0.495551025390625,9.831191062927246,-0.053270988166332245,0.06883329898118973
1763082719540559600,0.4975595703125,9.831191062927246,-0.058059390634298325,0.06883329898118973
1763082719542568000,0.49956787109375,9.82640266418457,-0.058059390634298325,0.06404489278793335
1763082719544576500,0.501576416015625,9.812037467956543,-0.04369417950510979,0.05446808785200119
1763082719546584800,0.503584716796875,9.82640266418457,-0.04369417950510979,0.06404489278793335
1763082719548593400,0.505593505859375,9.82640266418457,-0.048482585698366165,0.04489128291606903
1763082719550602000,0.50760205078125,9.840767860412598,-0.03890577703714371,0.05925649031996727
1763082719552610300,0.5096103515625,9.816825866699219,-0.04369417950510979,0.04967968538403511
1763082719554619000,0.511618896484375,9.82640266418457,-0.0628477931022644,0.07841010391712189
1763082719556627500,0.51362744140625,9.821614265441895,-0.058059390634298325,0.06404489278793335
1763082719558635800,0.5156357421875,9.812037467956543,-0.048482585698366165,0.05446808785200119
1763082719560644400,0.517644287109375,9.831191062927246,-0.03890577703714371,0.06404489278793335
1763082719562653000,0.51965283203125,9.821614265441895,-0.04369417950510979,0.06404489278793335
1763082719564661200,0.5216611328125,9.821614265441895,-0.048482585698366165,0.05925649031996727
1763082719566669800,0.523669921875,9.821614265441895,-0.053270988166332245,0.05925649031996727
1763082719568678400,0.525678466796875,9.835979461669922,-0.058059390634298325,0.07841010391712189
1763082719570686700,0.527686767578125,9.831191062927246,-0.0628477931022644,0.06883329898118973
1763082719572695300,0.5296953125,9.835979461669922,-0.0628477931022644,0.06883329898118973
1763082719574703900,0.531703857421875,9.816825866699219,-0.053270988166332245,0.05446808785200119
1763082719576712200,0.533712158203125,9.821614265441895,-0.058059390634298325,0.0736217051744461
1763082719578720800,0.535720703125,9.831191062927246,-0.053270988166332245,0.05925649031996727
1763082719580729300,0.537729248046875,9.82640266418457,-0.053270988166332245,0.06883329898118973
1763082719582737700,0.539737548828125,9.821614265441895,-0.0628477931022644,0.06883329898118973
1763082719584746200,0.541746337890625,9.816825866699219,-0.053270988166332245,0.0736217051744461
1763082719586754800,0.5437548828125,9.821614265441895,-0.048482585698366165,0.04489128291606903
1763082719588763100,0.54576318359375,9.821614265441895,-0.053270988166332245,0.06404489278793335
1763082719590771700,0.547771728515625,9.816825866699219,-0.04369417950510979,0.06404489278793335
1763082719592780300,0.5497802734375,9.835979461669922,-0.058059390634298325,0.05925649031996727
1763082719594788600,0.55178857421875,9.816825866699219,-0.03890577703714371,0.05446808785200119
1763082719596797200,0.553797119140625,9.812037467956543,-0.03890577703714371,0.08319851011037827
1763082719598805800,0.5558056640625,9.816825866699219,-0.053270988166332245,0.0736217051744461
1763082719600814000,0.55781396484375,9.831191062927246,-0.053270988166332245,0.05925649031996727
1763082719602822700,0.55982275390625,9.821614265441895,-0.04369417950510979,0.05446808785200119
1763082719604831000,0.5618310546875,9.835979461669922,-0.048482585698366165,0.07841010391712189
1763082719606839600,0.563839599609375,9.821614265441895,-0.048482585698366165,0.05446808785200119
1763082719608848000,0.565847900390625,9.821614265441895,-0.058059390634298325,0.06404489278793335
1763082719610856400,0.5678564453125,9.807249069213867,-0.0628477931022644,0.05925649031996727
1763082719612864800,0.56986474609375,9.816825866699219,-0.053270988166332245,0.0736217051744461
1763082719614873300,0.571873291015625,9.816825866699219,-0.048482585698366165,0.05446808785200119
1763082719616881700,0.573881591796875,9.821614265441895,-0.058059390634298325,0.0736217051744461
1763082719618890200,0.57589013671875,9.821614265441895,-0.03411737456917763,0.05925649031996727
1763082719620898600,0.577898681640625,9.812037467956543,-0.06763619929552078,0.06404489278793335
1763082719622907100,0.5799072265625,9.821614265441895,-0.053270988166332245,0.04967968538403511
1763082719624915500,0.58191552734375,9.807249069213867,-0.07242459803819656,0.05925649031996727
1763082719626923800,0.583923828125,9.812037467956543,-0.048482585698366165,0.05925649031996727
1763082719628932400,0.585932373046875,9.812037467956543,-0.053270988166332245,0.07841010391712189
1763082719630940700,0.587940673828125,9.821614265441895,-0.048482585698366165,0.06404489278793335
1763082719632949200,0.58994921875,9.816825866699219,-0.053270988166332245,0.06404489278793335
1763082719634957600,0.59195751953125,9.821614265441895,-0.0628477931022644,0.0736217051744461
1763082719636966100,0.593966064453125,9.807249069213867,-0.058059390634298325,0.05446808785200119
1763082719638974500,0.595974365234375,9.797672271728516,-0.053270988166332245,0.06883329898118973
1763082719640983000,0.597983154296875,9.807249069213867,-0.058059390634298325,0.05925649031996727
1763082719642991400,0.599991455078125,9.807249069213867,-0.0628477931022644,0.06404489278793335
1763082719645000000,0.602,9.821614265441895,-0.053270988166332245,0.06404489278793335
1763082719647008300,0.60400830078125,9.816825866699219,-0.048482585698366165,0.0736217051744461
1763082719649016800,0.606016845703125,9.812037467956543,-0.048482585698366165,0.06404489278793335
1763082719651025200,0.608025146484375,9.816825866699219,-0.053270988166332245,0.05925649031996727
1763082719653033500,0.610033447265625,9.79288387298584,-0.053270988166332245,0.06883329898118973
1763082719655042000,0.6120419921875,9.816825866699219,-0.04369417950510979,0.05925649031996727
1763082719657050400,0.61405029296875,9.807249069213867,-0.06763619929552078,0.05925649031996727
1763082719659059000,0.616058837890625,9.797672271728516,-0.048482585698366165,0.0736217051744461
1763082719661067300,0.6180673828125,9.79288387298584,-0.0628477931022644,0.0736217051744461
1763082719663075800,0.620075927734375,9.812037467956543,-0.04369417950510979,0.05446808785200119
1763082719665084200,0.622084228515625,9.807249069213867,-0.058059390634298325,0.04967968538403511
1763082719667092700,0.6240927734375,9.82640266418457,-0.053270988166332245,0.06883329898118973
1763082719669101000,0.62610107421875,9.812037467956543,-0.06763619929552078,0.06404489278793335
1763082719671109600,0.628109619140625,9.816825866699219,-0.058059390634298325,0.05925649031996727
1763082719673118000,0.630117919921875,9.831191062927246,-0.058059390634298325,0.05446808785200119
1763082719675126300,0.632126220703125,9.807249069213867,-0.048482585698366165,0.06883329898118973
1763082719677134800,0.634134765625,9.816825866699219,-0.04369417950510979,0.05446808785200119
1763082719679143200,0.63614306640625,9.812037467956543,-0.058059390634298325,0.0736217051744461
1763082719681151700,0.63815185546875,9.812037467956543,-0.053270988166332245,0.04489128291606903
1763082719683160000,0.64016015625,9.802460670471191,-0.048482585698366165,0.0736217051744461
1763082719685168600,0.642168701171875,9.812037467956543,-0.0628477931022644,0.06404489278793335
1763082719687177000,0.644177001953125,9.802460670471191,-0.058059390634298325,0.06404489278793335
1763082719689185500,0.646185546875,9.816825866699219,-0.058059390634298325,0.05925649031996727
1763082719691193900,0.64819384765625,9.816825866699219,-0.07242459803819656,0.05925649031996727
1763082719693202400,0.650202392578125,9.812037467956543,-0.03890577703714371,0.06404489278793335
1763082719695210800,0.652210693359375,9.807249069213867,-0.058059390634298325,0.0736217051744461
1763082719697219300,0.65421923828125,9.82640266418457,-0.04369417950510979,0.08319851011037827
1763082719699227600,0.6562275390625,9.802460670471191,-0.053270988166332245,0.05925649031996727
1763082719701236000,0.658236083984375,9.797672271728516,-0.04369417950510979,0.04967968538403511
1763082719703244500,0.66024462890625,9.807249069213867,-0.053270988166332245,0.06404489278793335
1763082719705252900,0.6622529296875,9.79288387298584,-0.053270988166332245,0.05925649031996727
1763082719707261400,0.664261474609375,9.807249069213867,-0.03890577703714371,0.05925649031996727
1763082719709269800,0.666269775390625,9.812037467956543,-0.048482585698366165,0.05925649031996727
1763082719711278300,0.6682783203125,9.812037467956543,-0.03890577703714371,0.0736217051744461
1763082719713286700,0.67028662109375,9.812037467956543,-0.04369417950510979,0.05925649031996727
1763082719715295200,0.672295166015625,9.807249069213867,-0.048482585698366165,0.05446808785200119
1763082719717303600,0.674303466796875,9.812037467956543,-0.048482585698366165,0.05925649031996727
1763082719719312100,0.67631201171875,9.831191062927246,-0.06763619929552078,0.04967968538403511
1763082719721320400,0.678320556640625,9.788095474243164,-0.0628477931022644,0.06404489278793335
1763082719723329000,0.6803291015625,9.797672271728516,-0.053270988166332245,0.05446808785200119
1763082719725337300,0.68233740234375,9.797672271728516,-0.04369417950510979,0.05925649031996727
1763082719727345700,0.684345703125,9.79288387298584,-0.053270988166332245,0.04967968538403511
1763082719729354200,0.686354248046875,9.79288387298584,-0.06763619929552078,0.05446808785200119
1763082719731362600,0.688362548828125,9.807249069213867,-0.048482585698366165,0.06883329898118973
1763082719733371100,0.69037109375,9.807249069213867,-0.048482585698366165,0.04967968538403511
1763082719735379500,0.69237939453125,9.802460670471191,-0.048482585698366165,0.06404489278793335
1763082719737388000,0.694387939453125,9.802460670471191,-0.053270988166332245,0.04967968538403511
1763082719739396400,0.696396240234375,9.807249069213867,-0.048482585698366165,0.0736217051744461
1763082719741405000,0.698405029296875,9.807249069213867,-0.048482585698366165,0.06404489278793335
1763082719743413200,0.700413330078125,9.812037467956543,-0.048482585698366165,0.06883329898118973
1763082719745421800,0.702421875,9.79288387298584,-0.048482585698366165,0.0736217051744461
1763082719747430100,0.70443017578125,9.802460670471191,-0.058059390634298325,0.05446808785200119
1763082719749438500,0.7064384765625,9.807249069213867,-0.0628477931022644,0.05925649031996727
1763082719751447000,0.708447021484375,9.802460670471191,-0.058059390634298325,0.05446808785200119
1763082719753455400,0.710455322265625,9.79288387298584,-0.0628477931022644,0.06404489278793335
1763082719755464000,0.7124638671875,9.807249069213867,-0.048482585698366165,0.04010287672281265
1763082719757472300,0.71447216796875,9.79288387298584,-0.04369417950510979,0.05446808785200119
1763082719759480800,0.716480712890625,9.788095474243164,-0.053270988166332245,0.04010287672281265
1763082719761489200,0.7184892578125,9.816825866699219,-0.04369417950510979,0.05446808785200119
1763082719763497700,0.720497802734375,9.802460670471191,-0.058059390634298325,0.06404489278793335
1763082719765506000,0.722506103515625,9.797672271728516,-0.03411737456917763,0.0736217051744461
1763082719767514600,0.7245146484375,9.802460670471191,-0.0628477931022644,0.05446808785200119
1763082719769523000,0.72652294921875,9.812037467956543,-0.058059390634298325,0.06404489278793335
1763082719771531500,0.728531494140625,9.807249069213867,-0.0628477931022644,0.05925649031996727
1763082719773539800,0.730539794921875,9.79288387298584,-0.058059390634298325,0.04967968538403511
1763082719775548200,0.732548095703125,9.802460670471191,-0.053270988166332245,0.05446808785200119
1763082719777556700,0.734556640625,9.797672271728516,-0.04369417950510979,0.05925649031996727
1763082719779565000,0.73656494140625,9.812037467956543,-0.048482585698366165,0.05446808785200119
1763082719781573600,0.73857373046875,9.835979461669922,-0.04369417950510979,0.06883329898118973
1763082719783582000,0.74058203125,9.807249069213867,-0.06763619929552078,0.04967968538403511
1763082719785590500,0.742590576171875,9.802460670471191,-0.058059390634298325,0.05925649031996727
1763082719787598800,0.744598876953125,9.802460670471191,-0.053270988166332245,0.05925649031996727
1763082719789607400,0.746607421875,9.807249069213867,-0.0628477931022644,0.06883329898118973
1763082719791615700,0.74861572265625,9.79288387298584,-0.053270988166332245,0.06404489278793335
1763082719793624300,0.750624267578125,9.816825866699219,-0.03411737456917763,0.06404489278793335
1763082719795632600,0.752632568359375,9.802460670471191,-0.0293289702385664,0.05925649031996727
1763082719797641000,0.754640869140625,9.802460670471191,-0.058059390634298325,0.05925649031996727
1763082719799649500,0.7566494140625,9.79288387298584,-0.053270988166332245,0.05925649031996727
1763082719801657900,0.758657958984375,9.79288387298584,-0.053270988166332245,0.06404489278793335
1763082719803666400,0.76066650390625,9.788095474243164,-0.0628477931022644,0.05925649031996727
1763082719805674800,0.7626748046875,9.788095474243164,-0.03890577703714371,0.05925649031996727
1763082719807683300,0.764683349609375,9.816825866699219,-0.053270988166332245,0.06404489278793335
1763082719809691600,0.766691650390625,9.807249069213867,-0.04369417950510979,0.05925649031996727
1763082719811700200,0.7687001953125,9.812037467956543,-0.0628477931022644,0.05925649031996727
1763082719813708500,0.77070849609375,9.816825866699219,-0.07242459803819656,0.05925649031996727
1763082719815717000,0.772717041015625,9.821614265441895,-0.04369417950510979,0.06404489278793335
1763082719817725400,0.774725341796875,9.807249069213867,-0.058059390634298325,0.07841010391712189
1763082719819734000,0.776734130859375,9.816825866699219,-0.058059390634298325,0.06883329898118973
1763082719821742300,0.778742431640625,9.797672271728516,-0.04369417950510979,0.06883329898118973
1763082719823750700,0.780750732421875,9.816825866699219,-0.03890577703714371,0.04489128291606903
1763082719825759200,0.78275927734375,9.807249069213867,-0.058059390634298325,0.06404489278793335
1763082719827767600,0.784767578125,9.79288387298584,-0.048482585698366165,0.07841010391712189
1763082719829776100,0.786776123046875,9.807249069213867,-0.048482585698366165,0.0736217051744461
1763082719831784400,0.788784423828125,9.802460670471191,-0.04369417950510979,0.06404489278793335
1763082719833793000,0.79079296875,9.802460670471191,-0.048482585698366165,0.0736217051744461
1763082719835801300,0.79280126953125,9.82640266418457,-0.048482585698366165,0.06404489278793335
1763082719837810000,0.794809814453125,9.812037467956543,-0.048482585698366165,0.06883329898118973
1763082719839818200,0.796818359375,9.802460670471191,-0.053270988166332245,0.05446808785200119
1763082719841826800,0.798826904296875,9.797672271728516,-0.053270988166332245,0.05925649031996727
1763082719843835100,0.800835205078125,9.816825866699219,-0.058059390634298325,0.06404489278793335
1763082719845843700,0.80284375,9.797672271728516,-0.0628477931022644,0.05925649031996727
1763082719847852000,0.80485205078125,9.797672271728516,-0.04369417950510979,0.04967968538403511
1763082719849860400,0.8068603515625,9.797672271728516,-0.03890577703714371,0.07841010391712189
1763082719851869000,0.808868896484375,9.797672271728516,-0.058059390634298325,0.06883329898118973
1763082719853877200,0.810877197265625,9.802460670471191,-0.053270988166332245,0.06883329898118973
1763082719855885800,0.8128857421875,9.807249069213867,-0.048482585698366165,0.07841010391712189
1763082719857894100,0.81489404296875,9.802460670471191,-0.04369417950510979,0.05925649031996727
1763082719859902700,0.81690283203125,9.807249069213867,-0.058059390634298325,0.05925649031996727
1763082719861911000,0.8189111328125,9.802460670471191,-0.053270988166332245,0.04967968538403511
1763082719863919600,0.820919677734375,9.802460670471191,-0.0628477931022644,0.05925649031996727
1763082719865928200,0.82292822265625,9.802460670471191,-0.0628477931022644,0.07841010391712189
1763082719867936500,0.8249365234375,9.797672271728516,-0.058059390634298325,0.05925649031996727
1763082719869945000,0.826945068359375,9.812037467956543,-0.053270988166332245,0.06404489278793335
1763082719871953400,0.828953369140625,9.79288387298584,-0.048482585698366165,0.0736217051744461
1763082719873962000,0.8309619140625,9.797672271728516,-0.03890577703714371,0.05925649031996727
1763082719875970600,0.832970458984375,9.812037467956543,-0.048482585698366165,0.05925649031996727
1763082719877979000,0.834978759765625,9.783307075500488,-0.058059390634298325,0.06883329898118973
1763082719879987500,0.836987548828125,9.79288387298584,-0.048482585698366165,0.06404489278793335
1763082719881996000,0.83899609375,9.812037467956543,-0.048482585698366165,0.06883329898118973
1763082719884004400,0.84100439453125,9.797672271728516,-0.048482585698366165,0.06883329898118973
1763082719886013000,0.843012939453125,9.812037467956543,-0.048482585698366165,0.04489128291606903
1763082719888021500,0.845021484375,9.802460670471191,-0.048482585698366165,0.06883329898118973
1763082719890029800,0.84702978515625,9.797672271728516,-0.03890577703714371,0.04967968538403511
1763082719892038400,0.849038330078125,9.79288387298584,-0.058059390634298325,0.05925649031996727
1763082719894047000,0.851046875,9.788095474243164,-0.053270988166332245,0.05925649031996727
1763082719896055300,0.85305517578125,9.79288387298584,-0.048482585698366165,0.06404489278793335
1763082719898064000,0.85506396484375,9.802460670471191,-0.048482585698366165,0.06404489278793335
1763082719900072400,0.857072509765625,9.802460670471191,-0.058059390634298325,0.0736217051744461
1763082719902080800,0.859080810546875,9.79288387298584,-0.048482585698366165,0.04967968538403511
1763082719904089300,0.86108935546875,9.79288387298584,-0.058059390634298325,0.07841010391712189
1763082719906098000,0.863097900390625,9.788095474243164,-0.053270988166332245,0.05925649031996727
1763082719908106200,0.865106201171875,9.768941879272461,-0.048482585698366165,0.05446808785200119
1763082719910114800,0.86711474609375,9.802460670471191,-0.048482585698366165,0.05925649031996727
1763082719912123400,0.869123291015625,9.79288387298584,-0.053270988166332245,0.06404489278793335
1763082719914131700,0.871131591796875,9.797672271728516,-0.053270988166332245,0.04010287672281265
1763082719916140300,0.873140380859375,9.79288387298584,-0.04369417950510979,0.06404489278793335
1763082719918148900,0.87514892578125,9.812037467956543,-0.03890577703714371,0.04967968538403511
1763082719920157200,0.8771572265625,9.807249069213867,-0.053270988166332245,0.0736217051744461
1763082719922165800,0.879165771484375,9.764153480529785,-0.053270988166332245,0.04967968538403511
1763082719924174300,0.88117431640625,9.788095474243164,-0.06763619929552078,0.08319851011037827
1763082719926182700,0.8831826171875,9.797672271728516,-0.053270988166332245,0.05925649031996727
1763082719928191200,0.885191162109375,9.816825866699219,-0.058059390634298325,0.04967968538403511
1763082719930199600,0.887199462890625,9.797672271728516,-0.058059390634298325,0.06883329898118973
1763082719932208000,0.8892080078125,9.807249069213867,-0.0628477931022644,0.05446808785200119
1763082719934216400,0.891216552734375,9.79288387298584,-0.053270988166332245,0.04967968538403511
1763082719936224800,0.893224853515625,9.797672271728516,-0.058059390634298325,0.08319851011037827
1763082719938233300,0.8952333984375,9.788095474243164,-0.058059390634298325,0.05446808785200119
1763082719940241700,0.89724169921875,9.788095474243164,-0.048482585698366165,0.06883329898118973
1763082719942250200,0.899250244140625,9.797672271728516,-0.053270988166332245,0.05446808785200119
1763082719944258600,0.901258544921875,9.783307075500488,-0.04369417950510979,0.06404489278793335
1763082719946267100,0.90326708984375,9.788095474243164,-0.03411737456917763,0.05925649031996727
1763082719948275500,0.905275390625,9.79288387298584,-0.053270988166332245,0.04489128291606903
1763082719950284000,0.907283935546875,9.783307075500488,-0.053270988166332245,0.04967968538403511
1763082719952292400,0.909292236328125,9.783307075500488,-0.058059390634298325,0.06404489278793335
1763082719954301000,0.911301025390625,9.79288387298584,-0.048482585698366165,0.05446808785200119
1763082719956309200,0.913309326171875,9.788095474243164,-0.03890577703714371,0.05925649031996727
1763082719958317800,0.91531787109375,9.79288387298584,-0.048482585698366165,0.05446808785200119
1763082719960326100,0.917326171875,9.79288387298584,-0.058059390634298325,0.05925649031996727
1763082719962334500,0.91933447265625,9.788095474243164,-0.053270988166332245,0.05925649031996727
1763082719964343000,0.921343017578125,9.79288387298584,-0.03890577703714371,0.05925649031996727
1763082719966351400,0.923351318359375,9.773730278015137,-0.053270988166332245,0.05446808785200119
1763082719968360000,0.92535986328125,9.79288387298584,-0.06763619929552078,0.05925649031996727
1763082719970368300,0.9273681640625,9.773730278015137,-0.053270988166332245,0.0736217051744461
1763082719972376800,0.929376953125,9.778518676757812,-0.03411737456917763,0.05446808785200119
1763082719974385200,0.93138525390625,9.797672271728516,-0.07242459803819656,0.04010287672281265
1763082719976393700,0.933393798828125,9.797672271728516,-0.04369417950510979,0.08319851011037827
1763082719978402000,0.935402099609375,9.797672271728516,-0.053270988166332245,0.06404489278793335
1763082719980410600,0.93741064453125,9.79288387298584,-0.03890577703714371,0.05925649031996727
1763082719982419000,0.9394189453125,9.783307075500488,-0.048482585698366165,0.05446808785200119
1763082719984427300,0.94142724609375,9.783307075500488,-0.053270988166332245,0.0736217051744461
1763082719986435800,0.943435791015625,9.768941879272461,-0.058059390634298325,0.06404489278793335
1763082719988444200,0.945444091796875,9.783307075500488,-0.048482585698366165,0.05925649031996727
1763082719990452700,0.94745263671875,9.788095474243164,-0.048482585698366165,0.06404489278793335
1763082719992461000,0.9494609375,9.79288387298584,-0.0628477931022644,0.06883329898118973
1763082719994469600,0.9514697265625,9.773730278015137,-0.04369417950510979,0.05925649031996727
1763082719996478000,0.95347802734375,9.788095474243164,-0.0628477931022644,0.06404489278793335
1763082719998486500,0.955486572265625,9.79288387298584,-0.04369417950510979,0.06404489278793335
1763082720000494800,0.957494873046875,9.797672271728516,-0.048482585698366165,0.06404489278793335
1763082720002503400,0.95950341796875,9.788095474243164,-0.048482585698366165,0.06404489278793335
1763082720004511700,0.96151171875,9.79288387298584,-0.048482585698366165,0.06883329898118973
1763082720006520300,0.963520263671875,9.783307075500488,-0.053270988166332245,0.05446808785200119
1763082720008528600,0.965528564453125,9.802460670471191,-0.058059390634298325,0.05446808785200119
1763082720010537000,0.967536865234375,9.79288387298584,-0.048482585698366165,0.06883329898118973
1763082720012545500,0.969545654296875,9.788095474243164,-0.04369417950510979,0.06404489278793335
1763082720014553900,0.971553955078125,9.812037467956543,-0.058059390634298325,0.04489128291606903
1763082720016562400,0.9735625,9.778518676757812,-0.06763619929552078,0.04967968538403511
1763082720018570800,0.97557080078125,9.768941879272461,-0.04369417950510979,0.0736217051744461
1763082720020579300,0.977579345703125,9.797672271728516,-0.048482585698366165,0.04967968538403511
1763082720022587600,0.979587646484375,9.812037467956543,-0.0628477931022644,0.06883329898118973
1763082720024596200,0.98159619140625,9.79288387298584,-0.06763619929552078,0.05925649031996727
1763082720026604500,0.9836044921875,9.79288387298584,-0.048482585698366165,0.05925649031996727
1763082720028613000,0.985613037109375,9.788095474243164,-0.053270988166332245,0.05446808785200119
1763082720030621400,0.987621337890625,9.802460670471191,-0.048482585698366165,0.07841010391712189
1763082720032629800,0.989629638671875,9.783307075500488,-0.053270988166332245,0.06883329898118973
1763082720034638300,0.991638427734375,9.768941879272461,-0.0628477931022644,0.05446808785200119
1763082720036646700,0.993646728515625,9.802460670471191,-0.06763619929552078,0.05446808785200119
1763082720038655200,0.9956552734375,9.797672271728516,-0.048482585698366165,0.0736217051744461
1763082720040663600,0.99766357421875,9.783307075500488,-0.058059390634298325,0.0736217051744461
1763082720042672000,0.999672119140625,9.788095474243164,-0.07242459803819656,0.05446808785200119
1763082720044680400,1.001680419921875,9.802460670471191,-0.04369417950510979,0.05925649031996727
1763082720046689000,1.00368896484375,9.79288387298584,-0.058059390634298325,0.06404489278793335
1763082720048697300,1.005697265625,9.773730278015137,-0.058059390634298325,0.0736217051744461
1763082720050706000,1.007705810546875,9.783307075500488,-0.053270988166332245,0.06883329898118973
1763082720052714200,1.00971435546875,9.788095474243164,-0.04369417950510979,0.06883329898118973
1763082720054722800,1.011722900390625,9.802460670471191,-0.053270988166332245,0.0736217051744461
1763082720056731100,1.013731201171875,9.788095474243164,-0.03890577703714371,0.06404489278793335
1763082720058739500,1.015739501953125,9.778518676757812,-0.04369417950510979,0.06404489278793335
1763082720060748000,1.017748046875,9.773730278015137,-0.053270988166332245,0.05446808785200119
1763082720062756400,1.01975634765625,9.79288387298584,-0.048482585698366165,0.0736217051744461
1763082720064765000,1.021764892578125,9.788095474243164,-0.058059390634298325,0.0736217051744461
1763082720066773200,1.023773193359375,9.788095474243164,-0.053270988166332245,0.05925649031996727
1763082720068781800,1.02578173828125,9.778518676757812,-0.0628477931022644,0.06883329898118973
1763082720070790100,1.0277900390625,9.783307075500488,-0.04369417950510979,0.06404489278793335
1763082720072798700,1.029798828125,9.788095474243164,-0.0628477931022644,0.05925649031996727
1763082720074807000,1.03180712890625,9.773730278015137,-0.048482585698366165,0.06404489278793335
1763082720076815600,1.033815673828125,9.778518676757812,-0.048482585698366165,0.06883329898118973
1763082720078824000,1.035823974609375,9.773730278015137,-0.053270988166332245,0.05925649031996727
1763082720080832500,1.03783251953125,9.797672271728516,-0.048482585698366165,0.07841010391712189
1763082720082840800,1.0398408203125,9.79288387298584,-0.048482585698366165,0.04967968538403511
1763082720084849200,1.04184912109375,9.783307075500488,-0.04369417950510979,0.05446808785200119
1763082720086857700,1.043857666015625,9.783307075500488,-0.053270988166332245,0.05925649031996727
1763082720088866000,1.045865966796875,9.778518676757812,-0.058059390634298325,0.0736217051744461
1763082720090874600,1.04787451171875,9.773730278015137,-0.058059390634298325,0.05446808785200119
1763082720092883000,1.049883056640625,9.783307075500488,-0.048482585698366165,0.06404489278793335
1763082720094891500,1.0518916015625,9.778518676757812,-0.058059390634298325,0.06883329898118973
1763082720096899800,1.05389990234375,9.783307075500488,-0.058059390634298325,0.07841010391712189
1763082720098908400,1.055908447265625,9.778518676757812,-0.053270988166332245,0.06404489278793335
1763082720100916700,1.057916748046875,9.783307075500488,-0.048482585698366165,0.06404489278793335
1763082720102925300,1.05992529296875,9.788095474243164,-0.04369417950510979,0.05446808785200119
1763082720104933600,1.06193359375,9.773730278015137,-0.0628477931022644,0.07841010391712189
1763082720106942000,1.06394189453125,9.79288387298584,-0.048482585698366165,0.05446808785200119
1763082720108950500,1.065950439453125,9.802460670471191,-0.0628477931022644,0.05925649031996727
1763082720110958800,1.067958740234375,9.768941879272461,-0.048482585698366165,0.0736217051744461
1763082720112967400,1.069967529296875,9.773730278015137,-0.048482585698366165,0.05925649031996727
1763082720114975700,1.071975830078125,9.768941879272461,-0.053270988166332245,0.05925649031996727
1763082720116984300,1.073984375,9.788095474243164,-0.048482585698366165,0.06404489278793335
1763082720118992600,1.07599267578125,9.788095474243164,-0.053270988166332245,0.05925649031996727
1763082720121001200,1.078001220703125,9.797672271728516,-0.053270988166332245,0.06883329898118973
1763082720123009800,1.080009765625,9.778518676757812,-0.053270988166332245,0.06883329898118973
1763082720125018000,1.08201806640625,9.788095474243164,-0.058059390634298325,0.06404489278793335
1763082720127026700,1.084026611328125,9.788095474243164,-0.053270988166332245,0.05925649031996727
1763082720129035300,1.08603515625,9.788095474243164,-0.058059390634298325,0.06404489278793335
1763082720131043600,1.088043701171875,9.783307075500488,-0.058059390634298325,0.04967968538403511
1763082720133052200,1.09005224609375,9.797672271728516,-0.053270988166332245,0.06404489278793335
1763082720135060700,1.092060791015625,9.79288387298584,-0.053270988166332245,0.05446808785200119
1763082720137069000,1.094069091796875,9.778518676757812,-0.058059390634298325,0.06404489278793335
1763082720139077600,1.09607763671875,9.802460670471191,-0.058059390634298325,0.04967968538403511
1763082720141086200,1.098086181640625,9.783307075500488,-0.048482585698366165,0.06883329898118973
1763082720143094500,1.100094482421875,9.788095474243164,-0.048482585698366165,0.05446808785200119
1763082720145103000,1.10210302734375,9.79288387298584,-0.048482585698366165,0.06404489278793335
1763082720147111700,1.104111572265625,9.773730278015137,-0.053270988166332245,0.05446808785200119
1763082720149120000,1.1061201171875,9.764153480529785,-0.0628477931022644,0.05446808785200119
1763082720151128600,1.108128662109375,9.797672271728516,-0.053270988166332245,0.06404489278793335
1763082720153137000,1.110136962890625,9.79288387298584,-0.058059390634298325,0.05925649031996727
1763082720155145500,1.1121455078125,9.783307075500488,-0.048482585698366165,0.05446808785200119
1763082720157154000,1.114154052734375,9.788095474243164,-0.058059390634298325,0.05446808785200119
1763082720159162400,1.116162353515625,9.783307075500488,-0.048482585698366165,0.04967968538403511
1763082720161171000,1.1181708984375,9.797672271728516,-0.0628477931022644,0.06404489278793335
1763082720163179500,1.120179443359375,9.807249069213867,-0.03890577703714371,0.05446808785200119
1763082720165187800,1.122187744140625,9.778518676757812,-0.0628477931022644,0.05925649031996727
1763082720167196400,1.124196533203125,9.788095474243164,-0.058059390634298325,0.05925649031996727
1763082720169205000,1.126205078125,9.768941879272461,-0.04369417950510979,0.06883329898118973
1763082720171213300,1.12821337890625,9.768941879272461,-0.0628477931022644,0.06883329898118973
1763082720173222000,1.130221923828125,9.802460670471191,-0.053270988166332245,0.04967968538403511
1763082720175230500,1.13223046875,9.783307075500488,-0.053270988166332245,0.04967968538403511
1763082720177238800,1.13423876953125,9.783307075500488,-0.053270988166332245,0.06404489278793335
1763082720179247400,1.136247314453125,9.788095474243164,-0.053270988166332245,0.05925649031996727
1763082720181256000,1.138255859375,9.778518676757812,-0.04369417950510979,0.05446808785200119
1763082720183264300,1.14026416015625,9.783307075500488,-0.053270988166332245,0.05925649031996727
1763082720185272800,1.14227294921875,9.783307075500488,-0.053270988166332245,0.05925649031996727
1763082720187281400,1.144281494140625,9.778518676757812,-0.058059390634298325,0.05446808785200119
1763082720189289700,1.146289794921875,9.79288387298584,-0.048482585698366165,0.05925649031996727
1763082720191298300,1.14829833984375,9.783307075500488,-0.03890577703714371,0.05446808785200119
1763082720193306600,1.150306640625,9.797672271728516,-0.053270988166332245,0.0736217051744461
1763082720195315200,1.152315185546875,9.783307075500488,-0.04369417950510979,0.05446808785200119
1763082720197323500,1.154323486328125,9.773730278015137,-0.058059390634298325,0.08319851011037827
1763082720199332000,1.15633203125,9.778518676757812,-0.04369417950510979,0.06404489278793335
1763082720201340400,1.15834033203125,9.773730278015137,-0.0628477931022644,0.06883329898118973
1763082720203348700,1.1603486328125,9.788095474243164,-0.058059390634298325,0.06404489278793335
1763082720205357300,1.162357421875,9.783307075500488,-0.048482585698366165,0.06883329898118973
1763082720207365600,1.16436572265625,9.778518676757812,-0.048482585698366165,0.06883329898118973
1763082720209374200,1.166374267578125,9.79288387298584,-0.048482585698366165,0.05925649031996727
1763082720211382500,1.168382568359375,9.783307075500488,-0.053270988166332245,0.04967968538403511
1763082720213391000,1.17039111328125,9.783307075500488,-0.06763619929552078,0.05446808785200119
1763082720215399400,1.1723994140625,9.802460670471191,-0.06763619929552078,0.05925649031996727
1763082720217408000,1.174407958984375,9.788095474243164,-0.053270988166332245,0.06883329898118973
1763082720219416300,1.176416259765625,9.778518676757812,-0.053270988166332245,0.05446808785200119
1763082720221425000,1.1784248046875,9.778518676757812,-0.058059390634298325,0.05446808785200119
1763082720223433200,1.18043310546875,9.783307075500488,-0.053270988166332245,0.05446808785200119
1763082720225441500,1.182441650390625,9.783307075500488,-0.03890577703714371,0.06883329898118973
1763082720227450000,1.1844501953125,9.797672271728516,-0.04369417950510979,0.0736217051744461
1763082720229458400,1.18645849609375,9.79288387298584,-0.048482585698366165,0.06883329898118973
1763082720231467000,1.188467041015625,9.778518676757812,-0.06763619929552078,0.06404489278793335
1763082720233475300,1.190475341796875,9.768941879272461,-0.04369417950510979,0.05446808785200119
1763082720235484000,1.19248388671875,9.783307075500488,-0.06763619929552078,0.06883329898118973
1763082720237492200,1.1944921875,9.788095474243164,-0.0293289702385664,0.05925649031996727
1763082720239500800,1.196500732421875,9.783307075500488,-0.048482585698366165,0.05446808785200119
1763082720241509000,1.198509033203125,9.773730278015137,-0.053270988166332245,0.05446808785200119
1763082720243517700,1.200517578125,9.79288387298584,-0.048482585698366165,0.06404489278793335
1763082720245526000,1.202526123046875,9.778518676757812,-0.058059390634298325,0.06883329898118973
1763082720247534600,1.20453466796875,9.778518676757812,-0.048482585698366165,0.05925649031996727
1763082720249543000,1.20654296875,9.754576683044434,-0.06763619929552078,0.05925649031996727
1763082720251551200,1.20855126953125,9.783307075500488,-0.058059390634298325,0.06883329898118973
1763082720253559800,1.210559814453125,9.797672271728516,-0.0628477931022644,0.06883329898118973
1763082720255568100,1.212568115234375,9.783307075500488,-0.04369417950510979,0.06883329898118973
1763082720257576700,1.21457666015625,9.797672271728516,-0.03411737456917763,0.05925649031996727
1763082720259585000,1.2165849609375,9.773730278015137,-0.058059390634298325,0.06404489278793335
1763082720261593600,1.218593505859375,9.778518676757812,-0.0628477931022644,0.05925649031996727
1763082720263602000,1.220601806640625,9.773730278015137,-0.04369417950510979,0.05446808785200119
1763082720265610500,1.222610595703125,9.778518676757812,-0.053270988166332245,0.06404489278793335
1763082720267618800,1.224618896484375,9.79288387298584,-0.06763619929552078,0.05925649031996727
1763082720269627400,1.22662744140625,9.778518676757812,-0.058059390634298325,0.05925649031996727
1763082720271635700,1.2286357421875,9.778518676757812,-0.053270988166332245,0.05446808785200119
1763082720273644000,1.23064404296875,9.773730278015137,-0.04369417950510979,0.06404489278793335
1763082720275652600,1.232652587890625,9.773730278015137,-0.048482585698366165,0.06404489278793335
1763082720277661000,1.234660888671875,9.783307075500488,-0.058059390634298325,0.05925649031996727
1763082720279669500,1.23666943359375,9.788095474243164,-0.048482585698366165,0.0736217051744461
1763082720281677800,1.238677734375,9.802460670471191,-0.053270988166332245,0.06404489278793335
1763082720283686400,1.240686279296875,9.778518676757812,-0.058059390634298325,0.07841010391712189
1763082720285694700,1.24269482421875,9.783307075500488,-0.053270988166332245,0.04967968538403511
1763082720287703300,1.244703369140625,9.778518676757812,-0.0628477931022644,0.06883329898118973
1763082720289711600,1.246711669921875,9.778518676757812,-0.053270988166332245,0.05925649031996727
1763082720291720200,1.24872021484375,9.783307075500488,-0.04369417950510979,0.06404489278793335
1763082720293728500,1.250728515625,9.778518676757812,-0.048482585698366165,0.04967968538403511
1763082720295737000,1.252737060546875,9.778518676757812,-0.03411737456917763,0.06404489278793335
1763082720297745400,1.254745361328125,9.79288387298584,-0.053270988166332245,0.07841010391712189
1763082720299753700,1.256753662109375,9.778518676757812,-0.048482585698366165,0.06404489278793335
1763082720301762300,1.25876220703125,9.783307075500488,-0.053270988166332245,0.05446808785200119
1763082720303770600,1.2607705078125,9.788095474243164,-0.03411737456917763,0.0736217051744461
1763082720305779200,1.262779296875,9.783307075500488,-0.058059390634298325,0.05925649031996727
1763082720307787500,1.26478759765625,9.778518676757812,-0.058059390634298325,0.05446808785200119
1763082720309796000,1.266796142578125,9.778518676757812,-0.058059390634298325,0.06404489278793335
1763082720311804400,1.268804443359375,9.773730278015137,-0.0628477931022644,0.06404489278793335
1763082720313813000,1.27081298828125,9.788095474243164,-0.0628477931022644,0.05446808785200119
1763082720315821300,1.2728212890625,9.788095474243164,-0.053270988166332245,0.05446808785200119
1763082720317830000,1.274829833984375,9.79288387298584,-0.04369417950510979,0.05925649031996727
1763082720319838200,1.276838134765625,9.788095474243164,-0.058059390634298325,0.05925649031996727
1763082720321846800,1.2788466796875,9.778518676757812,-0.048482585698366165,0.06883329898118973
1763082720323855000,1.280855224609375,9.773730278015137,-0.053270988166332245,0.06883329898118973
1763082720325863400,1.282863525390625,9.778518676757812,-0.04369417950510979,0.05925649031996727
1763082720327872000,1.2848720703125,9.764153480529785,-0.048482585698366165,0.05925649031996727
1763082720329880300,1.28688037109375,9.773730278015137,-0.058059390634298325,0.06404489278793335
1763082720331889000,1.288888916015625,9.788095474243164,-0.03890577703714371,0.05446808785200119
1763082720333897200,1.290897216796875,9.788095474243164,-0.058059390634298325,0.05925649031996727
1763082720335905800,1.29290576171875,9.788095474243164,-0.053270988166332245,0.04967968538403511
1763082720337914000,1.2949140625,9.764153480529785,-0.03890577703714371,0.06883329898118973
1763082720339922700,1.296922607421875,9.764153480529785,-0.03890577703714371,0.05925649031996727
1763082720341931000,1.298930908203125,9.768941879272461,-0.03890577703714371,0.06883329898118973
1763082720343939600,1.300939697265625,9.783307075500488,-0.048482585698366165,0.05446808785200119
1763082720345948000,1.302947998046875,9.773730278015137,-0.058059390634298325,0.04489128291606903
1763082720347956500,1.30495654296875,9.783307075500488,-0.048482585698366165,0.06404489278793335
1763082720349964800,1.30696484375,9.783307075500488,-0.048482585698366165,0.05446808785200119
1763082720351973400,1.308973388671875,9.778518676757812,-0.053270988166332245,0.05925649031996727
1763082720353982000,1.31098193359375,9.79288387298584,-0.058059390634298325,0.05446808785200119
1763082720355990300,1.312990234375,9.778518676757812,-0.048482585698366165,0.06404489278793335
1763082720357998800,1.314998779296875,9.75936508178711,-0.058059390634298325,0.07841010391712189
1763082720360007400,1.31700732421875,9.797672271728516,-0.048482585698366165,0.05925649031996727
1763082720362015700,1.319015625,9.783307075500488,-0.053270988166332245,0.05925649031996727
1763082720364024300,1.3210244140625,9.764153480529785,-0.048482585698366165,0.04967968538403511
1763082720366033000,1.323032958984375,9.778518676757812,-0.048482585698366165,0.05446808785200119
1763082720368041200,1.325041259765625,9.79288387298584,-0.03890577703714371,0.05446808785200119
1763082720370049800,1.3270498046875,9.788095474243164,-0.048482585698366165,0.05446808785200119
1763082720372058400,1.329058349609375,9.788095474243164,-0.053270988166332245,0.06883329898118973
1763082720374066700,1.331066650390625,9.773730278015137,-0.03890577703714371,0.0736217051744461
1763082720376075300,1.3330751953125,9.788095474243164,-0.07721300423145294,0.06404489278793335
1763082720378083800,1.335083740234375,9.773730278015137,-0.03890577703714371,0.06883329898118973
1763082720380092200,1.337092041015625,9.783307075500488,-0.053270988166332245,0.05446808785200119
1763082720382100700,1.339100830078125,9.79288387298584,-0.048482585698366165,0.07841010391712189
1763082720384109300,1.341109375,9.778518676757812,-0.048482585698366165,0.06404489278793335
1763082720386117600,1.34311767578125,9.768941879272461,-0.0628477931022644,0.06404489278793335
1763082720388126200,1.345126220703125,9.79288387298584,-0.048482585698366165,0.05925649031996727
1763082720390134800,1.347134765625,9.778518676757812,-0.0628477931022644,0.06883329898118973
1763082720392143000,1.34914306640625,9.79288387298584,-0.053270988166332245,0.06404489278793335
1763082720394151700,1.351151611328125,9.783307075500488,-0.03890577703714371,0.05925649031996727
1763082720396160300,1.35316015625,9.778518676757812,-0.053270988166332245,0.06404489278793335
1763082720398168600,1.35516845703125,9.783307075500488,-0.058059390634298325,0.05925649031996727
1763082720400177200,1.35717724609375,9.79288387298584,-0.048482585698366165,0.05446808785200119
1763082720402185700,1.359185791015625,9.768941879272461,-0.048482585698366165,0.06883329898118973
1763082720404194000,1.361194091796875,9.773730278015137,-0.03890577703714371,0.05925649031996727
1763082720406202600,1.36320263671875,9.788095474243164,-0.058059390634298325,0.06404489278793335
1763082720408211200,1.365211181640625,9.778518676757812,-0.053270988166332245,0.06883329898118973
1763082720410219500,1.367219482421875,9.773730278015137,-0.053270988166332245,0.06883329898118973
1763082720412228000,1.36922802734375,9.773730278015137,-0.053270988166332245,0.05925649031996727
1763082720414236700,1.371236572265625,9.778518676757812,-0.048482585698366165,0.06883329898118973
1763082720416245000,1.373244873046875,9.783307075500488,-0.058059390634298325,0.05925649031996727
1763082720418253600,1.375253662109375,9.778518676757812,-0.053270988166332245,0.05446808785200119
1763082720420262100,1.37726220703125,9.75936508178711,-0.048482585698366165,0.05925649031996727
1763082720422270500,1.3792705078125,9.783307075500488,-0.048482585698366165,0.06883329898118973
1763082720424278800,1.38127880859375,9.773730278015137,-0.03411737456917763,0.04967968538403511
1763082720426287400,1.383287353515625,9.797672271728516,-0.03890577703714371,0.06404489278793335
1763082720428295700,1.385295654296875,9.788095474243164,-0.053270988166332245,0.06883329898118973
1763082720430304300,1.38730419921875,9.778518676757812,-0.053270988166332245,0.0736217051744461
1763082720432312600,1.3893125,9.797672271728516,-0.058059390634298325,0.05446808785200119
1763082720434321200,1.391321044921875,9.773730278015137,-0.048482585698366165,0.05925649031996727
1763082720436329500,1.39332958984375,9.778518676757812,-0.0628477931022644,0.0736217051744461
1763082720438338000,1.395338134765625,9.768941879272461,-0.053270988166332245,0.06404489278793335
1763082720440346400,1.397346435546875,9.75936508178711,-0.053270988166332245,0.0736217051744461
1763082720442355000,1.39935498046875,9.768941879272461,-0.053270988166332245,0.0736217051744461
1763082720444363300,1.40136328125,9.764153480529785,-0.058059390634298325,0.0736217051744461
1763082720446371600,1.40337158203125,9.768941879272461,-0.058059390634298325,0.06883329898118973
1763082720448380200,1.405380126953125,9.773730278015137,-0.053270988166332245,0.06404489278793335
1763082720450388500,1.407388427734375,9.773730278015137,-0.053270988166332245,0.0736217051744461
1763082720452397000,1.40939697265625,9.773730278015137,-0.048482585698366165,0.06404489278793335
1763082720454405400,1.4114052734375,9.783307075500488,-0.053270988166332245,0.04489128291606903
1763082720456414000,1.4134140625,9.764153480529785,-0.058059390634298325,0.06883329898118973
1763082720458422300,1.41542236328125,9.773730278015137,-0.053270988166332245,0.04489128291606903
1763082720460430800,1.417430908203125,9.773730278015137,-0.048482585698366165,0.06883329898118973
1763082720462439200,1.419439208984375,9.79288387298584,-0.053270988166332245,0.06883329898118973
1763082720464447700,1.42144775390625,9.783307075500488,-0.058059390634298325,0.06883329898118973
1763082720466456000,1.4234560546875,9.773730278015137,-0.053270988166332245,0.06404489278793335
1763082720468464600,1.425464599609375,9.773730278015137,-0.03890577703714371,0.06404489278793335
1763082720470473000,1.427472900390625,9.783307075500488,-0.03890577703714371,0.0736217051744461
1763082720472481300,1.429481201171875,9.773730278015137,-0.058059390634298325,0.0736217051744461
1763082720474489900,1.43148974609375,9.773730278015137,-0.053270988166332245,0.06404489278793335
1763082720476498200,1.433498291015625,9.75936508178711,-0.048482585698366165,0.06404489278793335
1763082720478506800,1.4355068359375,9.778518676757812,-0.0628477931022644,0.05446808785200119
1763082720480515000,1.43751513671875,9.768941879272461,-0.03890577703714371,0.05446808785200119
1763082720482523600,1.439523681640625,9.773730278015137,-0.0628477931022644,0.06404489278793335
1763082720484532000,1.441531982421875,9.764153480529785,-0.0628477931022644,0.05925649031996727
1763082720486540500,1.44354052734375,9.783307075500488,-0.053270988166332245,0.04967968538403511
1763082720488548900,1.445548828125,9.768941879272461,-0.04369417950510979,0.0736217051744461
1763082720490557400,1.447557373046875,9.764153480529785,-0.04369417950510979,0.04967968538403511
1763082720492565800,1.449565673828125,9.773730278015137,-0.04369417950510979,0.0736217051744461
1763082720494574300,1.45157421875,9.773730278015137,-0.053270988166332245,0.06404489278793335
1763082720496582700,1.453582763671875,9.778518676757812,-0.04369417950510979,0.0736217051744461
1763082720498591000,1.455591064453125,9.773730278015137,-0.053270988166332245,0.06883329898118973
1763082720500599600,1.457599609375,9.773730278015137,-0.07242459803819656,0.04010287672281265
1763082720502608000,1.45960791015625,9.768941879272461,-0.058059390634298325,0.05446808785200119
1763082720504616400,1.461616455078125,9.773730278015137,-0.0628477931022644,0.05925649031996727
1763082720506624800,1.463624755859375,9.778518676757812,-0.048482585698366165,0.06404489278793335
1763082720508633300,1.46563330078125,9.778518676757812,-0.058059390634298325,0.06404489278793335
1763082720510641700,1.4676416015625,9.773730278015137,-0.0628477931022644,0.05925649031996727
1763082720512650200,1.469650146484375,9.778518676757812,-0.048482585698366165,0.0736217051744461
1763082720514658600,1.471658447265625,9.749788284301758,-0.02454056777060032,0.06404489278793335
1763082720516667100,1.473667236328125,9.768941879272461,-0.0628477931022644,0.06883329898118973
1763082720518675500,1.475675537109375,9.773730278015137,-0.058059390634298325,0.05925649031996727
1763082720520683800,1.477683837890625,9.75936508178711,-0.058059390634298325,0.06883329898118973
1763082720522692400,1.4796923828125,9.764153480529785,-0.058059390634298325,0.06883329898118973
1763082720524700700,1.48170068359375,9.778518676757812,-0.048482585698366165,0.05925649031996727
1763082720526709200,1.483709228515625,9.773730278015137,-0.0628477931022644,0.07841010391712189
1763082720528717600,1.485717529296875,9.783307075500488,-0.048482585698366165,0.04489128291606903
1763082720530726100,1.48772607421875,9.773730278015137,-0.03890577703714371,0.06404489278793335
1763082720532734500,1.489734375,9.773730278015137,-0.048482585698366165,0.05925649031996727
1763082720534743000,1.491742919921875,9.754576683044434,-0.04369417950510979,0.06883329898118973
1763082720536751400,1.49375146484375,9.75936508178711,-0.06763619929552078,0.05925649031996727
1763082720538760000,1.495760009765625,9.75936508178711,-0.04369417950510979,0.05925649031996727
1763082720540768300,1.497768310546875,9.764153480529785,-0.04369417950510979,0.04010287672281265
1763082720542776800,1.49977685546875,9.773730278015137,-0.053270988166332245,0.05446808785200119
1763082720544785200,1.50178515625,9.773730278015137,-0.048482585698366165,0.04489128291606903
1763082720546793500,1.50379345703125,9.778518676757812,-0.053270988166332245,0.06404489278793335
1763082720548802000,1.505802001953125,9.768941879272461,-0.0628477931022644,0.05925649031996727
1763082720550810400,1.507810302734375,9.764153480529785,-0.04369417950510979,0.06883329898118973
1763082720552819000,1.50981884765625,9.764153480529785,-0.058059390634298325,0.05446808785200119
1763082720554827500,1.51182763671875,9.773730278015137,-0.053270988166332245,0.05925649031996727
1763082720556835800,1.5138359375,9.768941879272461,-0.0628477931022644,0.06404489278793335
1763082720558844400,1.515844482421875,9.764153480529785,-0.03890577703714371,0.07841010391712189
1763082720560853000,1.51785302734375,9.749788284301758,-0.053270988166332245,0.06883329898118973
1763082720562861300,1.519861328125,9.768941879272461,-0.048482585698366165,0.06883329898118973
1763082720564870000,1.521869873046875,9.773730278015137,-0.048482585698366165,0.05925649031996727
1763082720566878500,1.52387841796875,9.768941879272461,-0.048482585698366165,0.0736217051744461
1763082720568886800,1.52588671875,9.75936508178711,-0.058059390634298325,0.04010287672281265
1763082720570895400,1.527895263671875,9.768941879272461,-0.06763619929552078,0.08319851011037827
1763082720572904000,1.529904052734375,9.788095474243164,-0.03890577703714371,0.05446808785200119
1763082720574912300,1.531912353515625,9.764153480529785,-0.04369417950510979,0.0736217051744461
1763082720576920800,1.5339208984375,9.778518676757812,-0.04369417950510979,0.06883329898118973
1763082720578929400,1.535929443359375,9.768941879272461,-0.053270988166332245,0.06883329898118973
1763082720580937700,1.537937744140625,9.764153480529785,-0.053270988166332245,0.06404489278793335
1763082720582946300,1.5399462890625,9.768941879272461,-0.053270988166332245,0.05925649031996727
1763082720584955000,1.541954833984375,9.764153480529785,-0.0628477931022644,0.04967968538403511
1763082720586963200,1.543963134765625,9.783307075500488,-0.048482585698366165,0.0736217051744461
1763082720588971800,1.5459716796875,9.75936508178711,-0.06763619929552078,0.06404489278793335
1763082720590980400,1.54798046875,9.764153480529785,-0.053270988166332245,0.0736217051744461
1763082720592988700,1.54998876953125,9.768941879272461,-0.048482585698366165,0.05925649031996727
1763082720594997200,1.551997314453125,9.773730278015137,-0.058059390634298325,0.06883329898118973
1763082720597005800,1.554005859375,9.773730278015137,-0.053270988166332245,0.07841010391712189
1763082720599014100,1.55601416015625,9.773730278015137,-0.058059390634298325,0.05446808785200119
1763082720601022700,1.558022705078125,9.768941879272461,-0.053270988166332245,0.06404489278793335
1763082720603031300,1.56003125,9.75936508178711,-0.058059390634298325,0.04967968538403511
1763082720605039600,1.56203955078125,9.754576683044434,-0.04369417950510979,0.0736217051744461
1763082720607048200,1.564048095703125,9.778518676757812,-0.0628477931022644,0.06883329898118973
1763082720609056800,1.566056884765625,9.764153480529785,-0.058059390634298325,0.06883329898118973
1763082720611065000,1.568065185546875,9.768941879272461,-0.053270988166332245,0.06404489278793335
1763082720613073700,1.57007373046875,9.783307075500488,-0.053270988166332245,0.0736217051744461
1763082720615082200,1.572082275390625,9.73542308807373,-0.06763619929552078,0.06404489278793335
1763082720617090600,1.574090576171875,9.75936508178711,-0.0628477931022644,0.06883329898118973
1763082720619099100,1.57609912109375,9.75936508178711,-0.058059390634298325,0.05446808785200119
1763082720621107700,1.578107666015625,9.768941879272461,-0.048482585698366165,0.08319851011037827
1763082720623116000,1.580115966796875,9.75936508178711,-0.0628477931022644,0.08319851011037827
1763082720625124600,1.58212451171875,9.75936508178711,-0.053270988166332245,0.06404489278793335
1763082720627133200,1.58413330078125,9.75936508178711,-0.048482585698366165,0.05446808785200119
1763082720629141500,1.5861416015625,9.768941879272461,-0.048482585698366165,0.06404489278793335
1763082720631150000,1.588150146484375,9.75936508178711,-0.053270988166332245,0.06883329898118973
1763082720633158700,1.59015869140625,9.773730278015137,-0.053270988166332245,0.06404489278793335
1763082720635167000,1.5921669921875,9.75936508178711,-0.0628477931022644,0.05925649031996727
1763082720637175600,1.594175537109375,9.768941879272461,-0.053270988166332245,0.06404489278793335
1763082720639184000,1.596183837890625,9.764153480529785,-0.06763619929552078,0.05925649031996727
1763082720641192400,1.5981923828125,9.773730278015137,-0.058059390634298325,0.05446808785200119
1763082720643200800,1.60020068359375,9.783307075500488,-0.048482585698366165,0.05925649031996727
1763082720645209000,1.602208984375,9.768941879272461,-0.048482585698366165,0.05446808785200119
1763082720647217700,1.6042177734375,9.764153480529785,-0.048482585698366165,0.04967968538403511
1763082720649226000,1.60622607421875,9.768941879272461,-0.048482585698366165,0.05925649031996727
1763082720651234600,1.608234619140625,9.764153480529785,-0.0628477931022644,0.05446808785200119
1763082720653243000,1.610242919921875,9.773730278015137,-0.053270988166332245,0.0736217051744461
1763082720655251500,1.61225146484375,9.773730278015137,-0.058059390634298325,0.07841010391712189
1763082720657259800,1.614259765625,9.754576683044434,-0.058059390634298325,0.0736217051744461
1763082720659268400,1.616268310546875,9.764153480529785,-0.048482585698366165,0.05925649031996727
1763082720661276700,1.618276611328125,9.768941879272461,-0.053270988166332245,0.06883329898118973
1763082720663285200,1.62028515625,9.764153480529785,-0.058059390634298325,0.05446808785200119
1763082720665293600,1.62229345703125,9.79288387298584,-0.053270988166332245,0.04967968538403511
1763082720667302100,1.62430224609375,9.744999885559082,-0.03890577703714371,0.04967968538403511
1763082720669310500,1.626310546875,9.75936508178711,-0.048482585698366165,0.06883329898118973
1763082720671318800,1.62831884765625,9.764153480529785,-0.0628477931022644,0.06883329898118973
1763082720673327400,1.630327392578125,9.768941879272461,-0.053270988166332245,0.05446808785200119
1763082720675335700,1.632335693359375,9.749788284301758,-0.053270988166332245,0.06883329898118973
1763082720677344300,1.63434423828125,9.744999885559082,-0.048482585698366165,0.05925649031996727
1763082720679352600,1.6363525390625,9.788095474243164,-0.04369417950510979,0.05925649031996727
1763082720681361200,1.638361083984375,9.75936508178711,-0.058059390634298325,0.05925649031996727
1763082720683369500,1.640369384765625,9.764153480529785,-0.04369417950510979,0.06404489278793335
1763082720685378000,1.6423779296875,9.773730278015137,-0.048482585698366165,0.06404489278793335
1763082720687386400,1.644386474609375,9.754576683044434,-0.053270988166332245,0.05925649031996727
1763082720689395000,1.64639501953125,9.768941879272461,-0.048482585698366165,0.04010287672281265
1763082720691403300,1.6484033203125,9.768941879272461,-0.058059390634298325,0.06404489278793335
1763082720693411600,1.65041162109375,9.768941879272461,-0.07242459803819656,0.06404489278793335
1763082720695420200,1.652420166015625,9.768941879272461,-0.053270988166332245,0.0736217051744461
1763082720697428500,1.654428466796875,9.754576683044434,-0.0293289702385664,0.06404489278793335
1763082720699437000,1.65643701171875,9.764153480529785,-0.048482585698366165,0.05925649031996727
1763082720701445400,1.6584453125,9.773730278015137,-0.03890577703714371,0.06883329898118973
1763082720703454000,1.660453857421875,9.764153480529785,-0.04369417950510979,0.05925649031996727
1763082720705462300,1.662462158203125,9.75936508178711,-0.053270988166332245,0.06883329898118973
1763082720707470800,1.664470947265625,9.754576683044434,-0.04369417950510979,0.06883329898118973
1763082720709479200,1.666479248046875,9.783307075500488,-0.048482585698366165,0.06404489278793335
1763082720711487700,1.66848779296875,9.764153480529785,-0.04369417950510979,0.07841010391712189
1763082720713496000,1.67049609375,9.75936508178711,-0.0628477931022644,0.04967968538403511
1763082720715504600,1.672504638671875,9.754576683044434,-0.04369417950510979,0.06883329898118973
1763082720717513000,1.674512939453125,9.778518676757812,-0.04369417950510979,0.06883329898118973
1763082720719521300,1.676521240234375,9.768941879272461,-0.03890577703714371,0.0736217051744461
1763082720721529900,1.67852978515625,9.764153480529785,-0.058059390634298325,0.04489128291606903
1763082720723538200,1.6805380859375,9.773730278015137,-0.048482585698366165,0.06883329898118973
1763082720725546800,1.682546630859375,9.764153480529785,-0.04369417950510979,0.05925649031996727
1763082720727555000,1.68455517578125,9.754576683044434,-0.058059390634298325,0.05925649031996727
1763082720729563600,1.686563720703125,9.773730278015137,-0.04369417950510979,0.05446808785200119
1763082720731572000,1.688572021484375,9.764153480529785,-0.053270988166332245,0.06404489278793335
1763082720733580500,1.69058056640625,9.754576683044434,-0.058059390634298325,0.0736217051744461
1763082720735588900,1.6925888671875,9.754576683044434,-0.053270988166332245,0.06883329898118973
1763082720737597400,1.694597412109375,9.773730278015137,-0.0628477931022644,0.05446808785200119
1763082720739605800,1.696605712890625,9.778518676757812,-0.058059390634298325,0.06883329898118973
1763082720741614300,1.6986142578125,9.778518676757812,-0.058059390634298325,0.05925649031996727
1763082720743622700,1.70062255859375,9.764153480529785,-0.04369417950510979,0.05446808785200119
1763082720745631000,1.702630859375,9.764153480529785,-0.053270988166332245,0.04489128291606903
1763082720747639600,1.7046396484375,9.783307075500488,-0.058059390634298325,0.06883329898118973
1763082720749648100,1.706648193359375,9.778518676757812,-0.048482585698366165,0.05446808785200119
1763082720751656400,1.708656494140625,9.768941879272461,-0.053270988166332245,0.05925649031996727
1763082720753665000,1.7106650390625,9.764153480529785,-0.0628477931022644,0.05925649031996727
1763082720755673600,1.712673583984375,9.768941879272461,-0.058059390634298325,0.05925649031996727
1763082720757682000,1.714681884765625,9.75936508178711,-0.048482585698366165,0.06404489278793335
1763082720759690500,1.7166904296875,9.75936508178711,-0.053270988166332245,0.0736217051744461
1763082720761699000,1.718698974609375,9.75936508178711,-0.048482585698366165,0.04967968538403511
1763082720763707400,1.720707275390625,9.768941879272461,-0.048482585698366165,0.06404489278793335
1763082720765716000,1.722716064453125,9.768941879272461,-0.053270988166332245,0.05925649031996727
1763082720767724500,1.724724609375,9.768941879272461,-0.053270988166332245,0.05446808785200119
1763082720769732900,1.72673291015625,9.768941879272461,-0.03890577703714371,0.06404489278793335
1763082720771741400,1.728741455078125,9.783307075500488,-0.053270988166332245,0.05446808785200119
1763082720773750000,1.73075,9.768941879272461,-0.048482585698366165,0.04967968538403511
1763082720775758300,1.73275830078125,9.788095474243164,-0.048482585698366165,0.06404489278793335
1763082720777767000,1.734766845703125,9.764153480529785,-0.058059390634298325,0.05925649031996727
1763082720779775500,1.736775390625,9.768941879272461,-0.048482585698366165,0.05925649031996727
1763082720781783800,1.73878369140625,9.773730278015137,-0.058059390634298325,0.06883329898118973
1763082720783792400,1.74079248046875,9.754576683044434,-0.04369417950510979,0.06883329898118973
1763082720785801000,1.742801025390625,9.75936508178711,-0.048482585698366165,0.05925649031996727
1763082720787809300,1.744809326171875,9.768941879272461,-0.058059390634298325,0.06883329898118973
1763082720789817900,1.74681787109375,9.773730278015137,-0.048482585698366165,0.05925649031996727
1763082720791826400,1.748826416015625,9.773730278015137,-0.058059390634298325,0.05446808785200119
1763082720793834800,1.750834716796875,9.764153480529785,-0.058059390634298325,0.06883329898118973
1763082720795843300,1.75284326171875,9.75936508178711,-0.04369417950510979,0.04967968538403511
1763082720797852000,1.754851806640625,9.754576683044434,-0.058059390634298325,0.06404489278793335
1763082720799860200,1.756860107421875,9.768941879272461,-0.053270988166332245,0.05446808785200119
1763082720801868800,1.758868896484375,9.773730278015137,-0.053270988166332245,0.06883329898118973
1763082720803877400,1.76087744140625,9.773730278015137,-0.058059390634298325,0.06883329898118973
1763082720805885700,1.7628857421875,9.768941879272461,-0.04369417950510979,0.05925649031996727
1763082720807894300,1.764894287109375,9.783307075500488,-0.03890577703714371,0.04967968538403511
1763082720809902800,1.76690283203125,9.778518676757812,-0.0628477931022644,0.07841010391712189
1763082720811911200,1.7689111328125,9.773730278015137,-0.053270988166332245,0.04967968538403511
1763082720813919700,1.770919677734375,9.768941879272461,-0.04369417950510979,0.04967968538403511
1763082720815928300,1.77292822265625,9.764153480529785,-0.03890577703714371,0.06404489278793335
1763082720817936600,1.7749365234375,9.75936508178711,-0.053270988166332245,0.06404489278793335
1763082720819945200,1.7769453125,9.768941879272461,-0.048482585698366165,0.05925649031996727
1763082720821953800,1.778953857421875,9.783307075500488,-0.048482585698366165,0.05925649031996727
1763082720823962000,1.780962158203125,9.773730278015137,-0.058059390634298325,0.05446808785200119
1763082720825970700,1.782970703125,9.778518676757812,-0.058059390634298325,0.04489128291606903
1763082720827979300,1.784979248046875,9.768941879272461,-0.053270988166332245,0.05446808785200119
1763082720829987600,1.786987548828125,9.773730278015137,-0.053270988166332245,0.06883329898118973
1763082720831996200,1.78899609375,9.764153480529785,-0.048482585698366165,0.06404489278793335
1763082720834004700,1.791004638671875,9.773730278015137,-0.04369417950510979,0.06404489278793335
1763082720836013000,1.793012939453125,9.768941879272461,-0.04369417950510979,0.05925649031996727
1763082720838021600,1.795021728515625,9.754576683044434,-0.053270988166332245,0.05446808785200119
1763082720840030000,1.797030029296875,9.768941879272461,-0.058059390634298325,0.06404489278793335
1763082720842038500,1.79903857421875,9.768941879272461,-0.03890577703714371,0.05446808785200119
1763082720844046800,1.801046875,9.754576683044434,-0.053270988166332245,0.06883329898118973
1763082720846055400,1.803055419921875,9.75936508178711,-0.03411737456917763,0.05925649031996727
1763082720848063700,1.805063720703125,9.783307075500488,-0.048482585698366165,0.05446808785200119
1763082720850072300,1.807072265625,9.773730278015137,-0.06763619929552078,0.07841010391712189
1763082720852080600,1.80908056640625,9.773730278015137,-0.03890577703714371,0.04967968538403511
1763082720854089200,1.811089111328125,9.764153480529785,-0.053270988166332245,0.07841010391712189
1763082720856097500,1.81309765625,9.768941879272461,-0.03411737456917763,0.05925649031996727
1763082720858105900,1.81510595703125,9.764153480529785,-0.053270988166332245,0.0736217051744461
1763082720860114400,1.817114501953125,9.75936508178711,-0.048482585698366165,0.05446808785200119
1763082720862122800,1.819122802734375,9.773730278015137,-0.048482585698366165,0.05925649031996727
1763082720864131300,1.82113134765625,9.768941879272461,-0.058059390634298325,0.05446808785200119
1763082720866139600,1.8231396484375,9.764153480529785,-0.053270988166332245,0.06404489278793335
1763082720868148200,1.825148193359375,9.768941879272461,-0.053270988166332245,0.0736217051744461
1763082720870156500,1.827156494140625,9.768941879272461,-0.048482585698366165,0.06883329898118973
1763082720872165000,1.8291650390625,9.773730278015137,-0.03890577703714371,0.06404489278793335
1763082720874173400,1.83117333984375,9.764153480529785,-0.058059390634298325,0.07841010391712189
1763082720876182000,1.83318212890625,9.768941879272461,-0.04369417950510979,0.06883329898118973
1763082720878190300,1.8351904296875,9.764153480529785,-0.04369417950510979,0.06404489278793335
1763082720880199000,1.837198974609375,9.75936508178711,-0.058059390634298325,0.04489128291606903
1763082720882207200,1.839207275390625,9.778518676757812,-0.053270988166332245,0.08319851011037827
1763082720884215600,1.841215576171875,9.768941879272461,-0.04369417950510979,0.06404489278793335
1763082720886224100,1.84322412109375,9.744999885559082,-0.048482585698366165,0.04967968538403511
1763082720888232400,1.845232421875,9.778518676757812,-0.053270988166332245,0.05446808785200119
1763082720890241000,1.847240966796875,9.773730278015137,-0.048482585698366165,0.06883329898118973
1763082720892249300,1.849249267578125,9.773730278015137,-0.048482585698366165,0.05446808785200119
1763082720894258000,1.8512578125,9.764153480529785,-0.04369417950510979,0.06404489278793335
1763082720896266200,1.853266357421875,9.778518676757812,-0.04369417950510979,0.05446808785200119
1763082720898274800,1.85527490234375,9.773730278015137,-0.0628477931022644,0.06883329898118973
1763082720900283100,1.857283203125,9.764153480529785,-0.048482585698366165,0.05925649031996727
1763082720902291700,1.859291748046875,9.75936508178711,-0.04369417950510979,0.05925649031996727
1763082720904300000,1.861300048828125,9.773730278015137,-0.04369417950510979,0.06404489278793335
1763082720906308600,1.86330859375,9.764153480529785,-0.048482585698366165,0.05925649031996727
1763082720908317000,1.86531689453125,9.75936508178711,-0.058059390634298325,0.04489128291606903
1763082720910325200,1.8673251953125,9.773730278015137,-0.053270988166332245,0.05925649031996727
1763082720912333800,1.869333740234375,9.778518676757812,-0.04369417950510979,0.04967968538403511
1763082720914342100,1.871342041015625,9.75936508178711,-0.058059390634298325,0.0736217051744461
1763082720916350700,1.873350830078125,9.764153480529785,-0.053270988166332245,0.05925649031996727
1763082720918359000,1.875359130859375,9.768941879272461,-0.048482585698366165,0.06404489278793335
1763082720920367600,1.87736767578125,9.768941879272461,-0.053270988166332245,0.05446808785200119
1763082720922376000,1.8793759765625,9.773730278015137,-0.053270988166332245,0.07841010391712189
1763082720924384500,1.881384521484375,9.768941879272461,-0.03411737456917763,0.05446808785200119
1763082720926392800,1.883392822265625,9.764153480529785,-0.053270988166332245,0.06883329898118973
1763082720928401400,1.8854013671875,9.764153480529785,-0.0628477931022644,0.06404489278793335
1763082720930409700,1.88740966796875,9.764153480529785,-0.06763619929552078,0.06404489278793335
1763082720932418000,1.88941796875,9.783307075500488,-0.058059390634298325,0.06883329898118973
1763082720934426600,1.891426513671875,9.768941879272461,-0.053270988166332245,0.05446808785200119
1763082720936435200,1.893435302734375,9.764153480529785,-0.048482585698366165,0.0736217051744461
1763082720938443500,1.895443603515625,9.773730278015137,-0.07242459803819656,0.05925649031996727
1763082720940452000,1.8974521484375,9.754576683044434,-0.053270988166332245,0.05925649031996727
1763082720942460700,1.899460693359375,9.788095474243164,-0.0628477931022644,0.05446808785200119
1763082720944469000,1.901468994140625,9.773730278015137,-0.058059390634298325,0.06883329898118973
1763082720946477600,1.9034775390625,9.773730278015137,-0.04369417950510979,0.05925649031996727
1763082720948486100,1.905486083984375,9.75936508178711,-0.053270988166332245,0.06404489278793335
1763082720950494500,1.907494384765625,9.773730278015137,-0.03890577703714371,0.05446808785200119
1763082720952503000,1.9095029296875,9.768941879272461,-0.058059390634298325,0.0736217051744461
1763082720954511600,1.91151171875,9.773730278015137,-0.048482585698366165,0.05925649031996727
1763082720956520000,1.91352001953125,9.783307075500488,-0.06763619929552078,0.0736217051744461
1763082720958528500,1.915528564453125,9.783307075500488,-0.053270988166332245,0.05446808785200119
1763082720960537000,1.917537109375,9.749788284301758,-0.058059390634298325,0.05925649031996727
1763082720962545400,1.91954541015625,9.768941879272461,-0.048482585698366165,0.05925649031996727
1763082720964554000,1.921553955078125,9.773730278015137,-0.048482585698366165,0.05925649031996727
1763082720966562600,1.9235625,9.764153480529785,-0.03890577703714371,0.04489128291606903
1763082720968571000,1.92557080078125,9.783307075500488,-0.053270988166332245,0.06883329898118973
1763082720970579500,1.927579345703125,9.764153480529785,-0.058059390634298325,0.04967968538403511
1763082720972588000,1.929588134765625,9.783307075500488,-0.058059390634298325,0.06883329898118973
1763082720974596400,1.931596435546875,9.783307075500488,-0.053270988166332245,0.05925649031996727
1763082720976605000,1.93360498046875,9.768941879272461,-0.0628477931022644,0.06404489278793335
1763082720978613500,1.935613525390625,9.764153480529785,-0.058059390634298325,0.05925649031996727
1763082720980621800,1.937621826171875,9.764153480529785,-0.058059390634298325,0.06404489278793335
1763082720982630400,1.93963037109375,9.778518676757812,-0.04369417950510979,0.04967968538403511
1763082720984638700,1.941638671875,9.749788284301758,-0.048482585698366165,0.05925649031996727
1763082720986647300,1.943647216796875,9.768941879272461,-0.04369417950510979,0.05446808785200119
1763082720988655900,1.94565576171875,9.778518676757812,-0.06763619929552078,0.06404489278793335
1763082720990664200,1.947664306640625,9.764153480529785,-0.053270988166332245,0.06404489278793335
1763082720992672800,1.9496728515625,9.764153480529785,-0.053270988166332245,0.06404489278793335
1763082720994681300,1.951681396484375,9.768941879272461,-0.0628477931022644,0.04967968538403511
1763082720996689700,1.953689697265625,9.75936508178711,-0.058059390634298325,0.06404489278793335
1763082720998698200,1.9556982421875,9.754576683044434,-0.048482585698366165,0.05446808785200119
1763082721000706800,1.957706787109375,9.764153480529785,-0.07242459803819656,0.06883329898118973
1763082721002715100,1.959715087890625,9.768941879272461,-0.048482585698366165,0.08319851011037827
1763082721004723700,1.9617236328125,9.773730278015137,-0.048482585698366165,0.06404489278793335
1763082721006732300,1.963732177734375,9.773730278015137,-0.058059390634298325,0.04967968538403511
1763082721008740600,1.96574072265625,9.773730278015137,-0.053270988166332245,0.06404489278793335
1763082721010749200,1.967749267578125,9.768941879272461,-0.053270988166332245,0.06883329898118973
1763082721012757800,1.9697578125,9.773730278015137,-0.048482585698366165,0.06883329898118973
1763082721014766000,1.97176611328125,9.783307075500488,-0.03890577703714371,0.05446808785200119
1763082721016774700,1.973774658203125,9.768941879272461,-0.048482585698366165,0.06883329898118973
1763082721018783200,1.975783203125,9.764153480529785,-0.04369417950510979,0.04967968538403511
1763082721020791600,1.97779150390625,9.749788284301758,-0.053270988166332245,0.06883329898118973
1763082721022800100,1.979800048828125,9.754576683044434,-0.053270988166332245,0.04967968538403511
1763082721024808700,1.98180859375,9.783307075500488,-0.058059390634298325,0.06404489278793335
1763082721026817000,1.983817138671875,9.778518676757812,-0.058059390634298325,0.06883329898118973
1763082721028825600,1.98582568359375,9.75936508178711,-0.058059390634298325,0.06404489278793335
1763082721030834200,1.987834228515625,9.764153480529785,-0.048482585698366165,0.06404489278793335
1763082721032842500,1.989842529296875,9.768941879272461,-0.0628477931022644,0.06404489278793335
1763082721034851000,1.99185107421875,9.768941879272461,-0.058059390634298325,0.05925649031996727
1763082721036859600,1.993859619140625,9.754576683044434,-0.04369417950510979,0.05925649031996727
1763082721038868000,1.995867919921875,9.778518676757812,-0.07721300423145294,0.05446808785200119
1763082721040876500,1.99787646484375,9.778518676757812,-0.048482585698366165,0.06404489278793335
1763082721042885000,1.999885009765625,9.773730278015137,-0.0628477931022644,0.05446808785200119
1763082721044893400,2.0018935546875,9.778518676757812,-0.0628477931022644,0.06404489278793335
1763082721046901800,2.00390185546875,9.768941879272461,-0.048482585698366165,0.04967968538403511
1763082721048910300,2.005910400390625,9.778518676757812,-0.053270988166332245,0.06404489278793335
1763082721050918700,2.007918701171875,9.778518676757812,-0.048482585698366165,0.05446808785200119
1763082721052927200,2.00992724609375,9.773730278015137,-0.0628477931022644,0.0736217051744461
1763082721054935600,2.011935546875,9.768941879272461,-0.0628477931022644,0.04489128291606903
1763082721056944000,2.013944091796875,9.768941879272461,-0.058059390634298325,0.05925649031996727
1763082721058952400,2.015952392578125,9.778518676757812,-0.048482585698366165,0.04967968538403511
1763082721060961000,2.0179609375,9.764153480529785,-0.04369417950510979,0.05925649031996727
1763082721062969300,2.01996923828125,9.773730278015137,-0.06763619929552078,0.05446808785200119
1763082721064978000,2.02197802734375,9.754576683044434,-0.04369417950510979,0.06883329898118973
1763082721066986200,2.023986328125,9.764153480529785,-0.0628477931022644,0.06404489278793335
1763082721068994600,2.02599462890625,9.778518676757812,-0.03890577703714371,0.06404489278793335
1763082721071003100,2.028003173828125,9.778518676757812,-0.048482585698366165,0.05446808785200119
1763082721073011500,2.030011474609375,9.788095474243164,-0.048482585698366165,0.07841010391712189
1763082721075020000,2.03202001953125,9.773730278015137,-0.058059390634298325,0.06404489278793335
1763082721077028400,2.0340283203125,9.768941879272461,-0.048482585698366165,0.06404489278793335
1763082721079037000,2.036036865234375,9.778518676757812,-0.058059390634298325,0.04967968538403511
1763082721081045200,2.038045166015625,9.754576683044434,-0.048482585698366165,0.05925649031996727
1763082721083053800,2.0400537109375,9.764153480529785,-0.053270988166332245,0.06883329898118973
1763082721085062100,2.042062255859375,9.773730278015137,-0.058059390634298325,0.07841010391712189
1763082721087070700,2.04407080078125,9.783307075500488,-0.048482585698366165,0.05925649031996727
1763082721089079000,2.0460791015625,9.778518676757812,-0.048482585698366165,0.06404489278793335
1763082721091087600,2.048087646484375,9.773730278015137,-0.04369417950510979,0.06883329898118973
1763082721093096000,2.050095947265625,9.783307075500488,-0.048482585698366165,0.05446808785200119
1763082721095104300,2.052104248046875,9.778518676757812,-0.053270988166332245,0.0736217051744461
1763082721097112800,2.05411279296875,9.783307075500488,-0.048482585698366165,0.05446808785200119
1763082721099121200,2.05612109375,9.778518676757812,-0.053270988166332245,0.06883329898118973
1763082721101129700,2.058129638671875,9.783307075500488,-0.053270988166332245,0.05446808785200119
1763082721103138000,2.060137939453125,9.764153480529785,-0.04369417950510979,0.0736217051744461
1763082721105146600,2.062146728515625,9.75936508178711,-0.053270988166332245,0.04967968538403511
1763082721107155000,2.064155029296875,9.778518676757812,-0.053270988166332245,0.0736217051744461
1763082721109163500,2.06616357421875,9.764153480529785,-0.048482585698366165,0.06883329898118973
1763082721111171800,2.068171875,9.778518676757812,-0.0628477931022644,0.06883329898118973
1763082721113180400,2.070180419921875,9.764153480529785,-0.058059390634298325,0.0736217051744461
1763082721115188700,2.072188720703125,9.778518676757812,-0.048482585698366165,0.05925649031996727
1763082721117197000,2.074197021484375,9.783307075500488,-0.058059390634298325,0.04489128291606903
1763082721119205600,2.07620556640625,9.783307075500488,-0.03890577703714371,0.06404489278793335
1763082721121214000,2.0782138671875,9.768941879272461,-0.053270988166332245,0.06883329898118973
1763082721123222500,2.080222412109375,9.773730278015137,-0.053270988166332245,0.06883329898118973
1763082721125230800,2.08223095703125,9.778518676757812,-0.048482585698366165,0.05446808785200119
1763082721127239400,2.084239501953125,9.783307075500488,-0.048482585698366165,0.08798690885305405
1763082721129248000,2.086248046875,9.768941879272461,-0.048482585698366165,0.05446808785200119
1763082721131256300,2.08825634765625,9.778518676757812,-0.053270988166332245,0.06404489278793335
1763082721133265000,2.090264892578125,9.773730278015137,-0.048482585698366165,0.04010287672281265
1763082721135273500,2.0922734375,9.783307075500488,-0.053270988166332245,0.05925649031996727
1763082721137281800,2.09428173828125,9.778518676757812,-0.053270988166332245,0.05446808785200119
1763082721139290400,2.096290283203125,9.768941879272461,-0.07721300423145294,0.0736217051744461
1763082721141299000,2.098298828125,9.773730278015137,-0.03890577703714371,0.05446808785200119
1763082721143307300,2.100307373046875,9.764153480529785,-0.058059390634298325,0.0736217051744461
1763082721145315800,2.10231591796875,9.75936508178711,-0.0628477931022644,0.06404489278793335
1763082721147324400,2.104324462890625,9.768941879272461,-0.04369417950510979,0.05925649031996727
1763082721149332700,2.106332763671875,9.778518676757812,-0.048482585698366165,0.04489128291606903
1763082721151341300,2.10834130859375,9.768941879272461,-0.053270988166332245,0.0736217051744461
1763082721153350000,2.110349853515625,9.768941879272461,-0.04369417950510979,0.05925649031996727
1763082721155358200,2.112358154296875,9.773730278015137,-0.03890577703714371,0.05446808785200119
1763082721157366800,2.11436669921875,9.773730278015137,-0.04369417950510979,0.05446808785200119
1763082721159375400,2.116375244140625,9.75936508178711,-0.053270988166332245,0.06404489278793335
1763082721161383700,2.1183837890625,9.788095474243164,-0.06763619929552078,0.05446808785200119
1763082721163392300,2.120392333984375,9.768941879272461,-0.053270988166332245,0.05446808785200119
1763082721165400800,2.12240087890625,9.773730278015137,-0.053270988166332245,0.04489128291606903
1763082721167409200,2.1244091796875,9.768941879272461,-0.053270988166332245,0.06883329898118973
1763082721169417700,2.126417724609375,9.778518676757812,-0.0628477931022644,0.05925649031996727
1763082721171426300,2.12842626953125,9.778518676757812,-0.058059390634298325,0.06883329898118973
1763082721173434600,2.1304345703125,9.783307075500488,-0.048482585698366165,0.04967968538403511
1763082721175443200,2.132443115234375,9.75936508178711,-0.03890577703714371,0.06883329898118973
1763082721177451800,2.13445166015625,9.79288387298584,-0.053270988166332245,0.06404489278793335
1763082721179460000,2.136460205078125,9.783307075500488,-0.053270988166332245,0.05446808785200119
1763082721181468700,2.13846875,9.783307075500488,-0.058059390634298325,0.05446808785200119
1763082721183477200,2.140477294921875,9.773730278015137,-0.058059390634298325,0.06883329898118973
1763082721185485600,2.142485595703125,9.768941879272461,-0.053270988166332245,0.06404489278793335
1763082721187494100,2.144494140625,9.783307075500488,-0.048482585698366165,0.06404489278793335
1763082721189502700,2.146502685546875,9.788095474243164,-0.04369417950510979,0.04967968538403511
1763082721191511000,2.148510986328125,9.773730278015137,-0.058059390634298325,0.05925649031996727
1763082721193519600,2.15051953125,9.754576683044434,-0.053270988166332245,0.05446808785200119
1763082721195528200,2.152528076171875,9.778518676757812,-0.048482585698366165,0.06883329898118973
1763082721197536500,2.15453662109375,9.768941879272461,-0.0628477931022644,0.06404489278793335
1763082721199545000,2.156545166015625,9.754576683044434,-0.048482585698366165,0.06404489278793335
1763082721201553400,2.158553466796875,9.773730278015137,-0.058059390634298325,0.06404489278793335
1763082721203562000,2.16056201171875,9.778518676757812,-0.04369417950510979,0.0736217051744461
1763082721205570600,2.162570556640625,9.783307075500488,-0.048482585698366165,0.0736217051744461
1763082721207579000,2.164578857421875,9.768941879272461,-0.058059390634298325,0.06404489278793335
1763082721209587500,2.16658740234375,9.778518676757812,-0.048482585698366165,0.06404489278793335
1763082721211596000,2.168595947265625,9.773730278015137,-0.053270988166332245,0.05925649031996727
1763082721213604400,2.170604248046875,9.773730278015137,-0.058059390634298325,0.05446808785200119
1763082721215613000,2.172613037109375,9.773730278015137,-0.048482585698366165,0.05925649031996727
1763082721217621500,2.17462158203125,9.778518676757812,-0.0628477931022644,0.06404489278793335
1763082721219629800,2.1766298828125,9.764153480529785,-0.053270988166332245,0.05446808785200119
1763082721221638400,2.178638427734375,9.768941879272461,-0.053270988166332245,0.06404489278793335
1763082721223647000,2.18064697265625,9.788095474243164,-0.048482585698366165,0.06883329898118973
1763082721225655300,2.1826552734375,9.768941879272461,-0.0628477931022644,0.05925649031996727
1763082721227664000,2.184663818359375,9.764153480529785,-0.048482585698366165,0.05925649031996727
1763082721229672400,2.18667236328125,9.768941879272461,-0.03890577703714371,0.0736217051744461
1763082721231680800,2.1886806640625,9.768941879272461,-0.048482585698366165,0.06404489278793335
1763082721233689300,2.190689453125,9.754576683044434,-0.048482585698366165,0.06883329898118973
1763082721235698000,2.192697998046875,9.783307075500488,-0.03890577703714371,0.05925649031996727
1763082721237706200,2.194706298828125,9.79288387298584,-0.053270988166332245,0.06883329898118973
1763082721239714800,2.19671484375,9.783307075500488,-0.058059390634298325,0.05925649031996727
1763082721241723400,2.198723388671875,9.768941879272461,-0.04369417950510979,0.04967968538403511
1763082721243731700,2.200731689453125,9.764153480529785,-0.048482585698366165,0.04967968538403511
1763082721245740300,2.202740234375,9.778518676757812,-0.04369417950510979,0.08319851011037827
1763082721247748900,2.204748779296875,9.768941879272461,-0.0628477931022644,0.06404489278793335
1763082721249757200,2.206757080078125,9.778518676757812,-0.048482585698366165,0.05925649031996727
1763082721251765800,2.208765869140625,9.75936508178711,-0.048482585698366165,0.06883329898118973
1763082721253774000,2.210774169921875,9.783307075500488,-0.053270988166332245,0.07841010391712189
1763082721255782700,2.21278271484375,9.773730278015137,-0.053270988166332245,0.04489128291606903
1763082721257791000,2.214791015625,9.783307075500488,-0.048482585698366165,0.0736217051744461
1763082721259799300,2.21679931640625,9.788095474243164,-0.03890577703714371,0.05446808785200119
1763082721261807900,2.218807861328125,9.778518676757812,-0.053270988166332245,0.05925649031996727
1763082721263816200,2.220816162109375,9.773730278015137,-0.04369417950510979,0.04967968538403511
1763082721265824800,2.22282470703125,9.778518676757812,-0.04369417950510979,0.07841010391712189
1763082721267833000,2.2248330078125,9.773730278015137,-0.048482585698366165,0.05925649031996727
1763082721269841700,2.226841552734375,9.79288387298584,-0.048482585698366165,0.05925649031996727
1763082721271850000,2.22885009765625,9.773730278015137,-0.053270988166332245,0.04967968538403511
1763082721273858600,2.230858642578125,9.768941879272461,-0.053270988166332245,0.05925649031996727
1763082721275867000,2.232866943359375,9.788095474243164,-0.048482585698366165,0.06404489278793335
1763082721277875500,2.23487548828125,9.783307075500488,-0.048482585698366165,0.06404489278793335
1763082721279883800,2.2368837890625,9.778518676757812,-0.0628477931022644,0.06404489278793335
1763082721281892400,2.238892333984375,9.79288387298584,-0.058059390634298325,0.04967968538403511
1763082721283900700,2.240900634765625,9.778518676757812,-0.04369417950510979,0.04967968538403511
1763082721285909000,2.242908935546875,9.778518676757812,-0.048482585698366165,0.0736217051744461
1763082721287917600,2.24491748046875,9.778518676757812,-0.06763619929552078,0.04010287672281265
1763082721289926000,2.24692578125,9.788095474243164,-0.053270988166332245,0.05925649031996727
1763082721291934500,2.2489345703125,9.778518676757812,-0.053270988166332245,0.05925649031996727
1763082721293942800,2.25094287109375,9.783307075500488,-0.048482585698366165,0.06883329898118973
1763082721295951400,2.252951416015625,9.788095474243164,-0.053270988166332245,0.06883329898118973
1763082721297959700,2.254959716796875,9.79288387298584,-0.07242459803819656,0.05925649031996727
1763082721299968300,2.25696826171875,9.778518676757812,-0.06763619929552078,0.05925649031996727
1763082721301976600,2.2589765625,9.773730278015137,-0.053270988166332245,0.05925649031996727
1763082721303985200,2.260985107421875,9.778518676757812,-0.0628477931022644,0.05925649031996727
1763082721305993500,2.262993408203125,9.768941879272461,-0.053270988166332245,0.06404489278793335
1763082721308001800,2.265001708984375,9.768941879272461,-0.048482585698366165,0.04967968538403511
1763082721310010400,2.26701025390625,9.778518676757812,-0.058059390634298325,0.05925649031996727
1763082721312018700,2.269018798828125,9.773730278015137,-0.053270988166332245,0.07841010391712189
1763082721314027300,2.27102734375,9.773730278015137,-0.048482585698366165,0.05925649031996727
1763082721316035600,2.27303564453125,9.79288387298584,-0.04369417950510979,0.04967968538403511
1763082721318044200,2.275044189453125,9.778518676757812,-0.058059390634298325,0.06404489278793335
1763082721320052500,2.277052490234375,9.79288387298584,-0.048482585698366165,0.05446808785200119
1763082721322061000,2.27906103515625,9.788095474243164,-0.058059390634298325,0.06404489278793335
1763082721324069400,2.2810693359375,9.764153480529785,-0.058059390634298325,0.05446808785200119
1763082721326078000,2.283077880859375,9.778518676757812,-0.048482585698366165,0.06404489278793335
1763082721328086300,2.285086181640625,9.773730278015137,-0.048482585698366165,0.05446808785200119
1763082721330094800,2.2870947265625,9.79288387298584,-0.0628477931022644,0.06404489278793335
1763082721332103400,2.289103515625,9.768941879272461,-0.053270988166332245,0.05446808785200119
1763082721334111700,2.29111181640625,9.797672271728516,-0.0628477931022644,0.06883329898118973
1763082721336120300,2.293120361328125,9.788095474243164,-0.048482585698366165,0.06883329898118973
1763082721338129000,2.29512890625,9.79288387298584,-0.04369417950510979,0.04967968538403511
1763082721340137200,2.29713720703125,9.802460670471191,-0.048482585698366165,0.04967968538403511
1763082721342145800,2.299145751953125,9.79288387298584,-0.048482585698366165,0.05925649031996727
1763082721344154400,2.301154296875,9.788095474243164,-0.04369417950510979,0.04967968538403511
1763082721346162700,2.30316259765625,9.797672271728516,-0.053270988166332245,0.06404489278793335
1763082721348171300,2.305171142578125,9.783307075500488,-0.04369417950510979,0.06404489278793335
1763082721350179800,2.307179931640625,9.773730278015137,-0.058059390634298325,0.05925649031996727
1763082721352188200,2.309188232421875,9.788095474243164,-0.03890577703714371,0.05446808785200119
1763082721354196700,2.31119677734375,9.79288387298584,-0.03890577703714371,0.0736217051744461
1763082721356205300,2.313205322265625,9.79288387298584,-0.048482585698366165,0.05446808785200119
1763082721358213600,2.315213623046875,9.79288387298584,-0.04369417950510979,0.06404489278793335
1763082721360222200,2.31722216796875,9.807249069213867,-0.058059390634298325,0.06404489278793335
1763082721362230800,2.319230712890625,9.778518676757812,-0.058059390634298325,0.05925649031996727
1763082721364239000,2.321239013671875,9.778518676757812,-0.04369417950510979,0.06404489278793335
1763082721366247700,2.32324755859375,9.773730278015137,-0.048482585698366165,0.07841010391712189
1763082721368256300,2.32525634765625,9.773730278015137,-0.058059390634298325,0.05446808785200119
1763082721370264600,2.3272646484375,9.783307075500488,-0.04369417950510979,0.05925649031996727
1763082721372273200,2.329273193359375,9.783307075500488,-0.0628477931022644,0.06883329898118973
1763082721374281700,2.33128173828125,9.788095474243164,-0.048482585698366165,0.06883329898118973
1763082721376290000,2.3332900390625,9.783307075500488,-0.04369417950510979,0.06404489278793335
1763082721378298600,2.335298583984375,9.79288387298584,-0.058059390634298325,0.05446808785200119
1763082721380307200,2.33730712890625,9.783307075500488,-0.03890577703714371,0.05925649031996727
1763082721382315500,2.3393154296875,9.797672271728516,-0.048482585698366165,0.05446808785200119
1763082721384324000,2.341323974609375,9.788095474243164,-0.048482585698366165,0.05925649031996727
1763082721386332700,2.343332763671875,9.783307075500488,-0.0628477931022644,0.06883329898118973
1763082721388341000,2.345341064453125,9.783307075500488,-0.053270988166332245,0.06404489278793335
1763082721390349600,2.347349609375,9.783307075500488,-0.048482585698366165,0.04967968538403511
1763082721392358000,2.34935791015625,9.788095474243164,-0.0628477931022644,0.04967968538403511
1763082721394366500,2.351366455078125,9.79288387298584,-0.058059390634298325,0.06883329898118973
1763082721396375000,2.353375,9.79288387298584,-0.04369417950510979,0.06404489278793335
1763082721398383400,2.35538330078125,9.802460670471191,-0.0293289702385664,0.06883329898118973
1763082721400392000,2.357391845703125,9.79288387298584,-0.058059390634298325,0.06883329898118973
1763082721402400500,2.359400390625,9.778518676757812,-0.04369417950510979,0.06404489278793335
1763082721404408800,2.361408935546875,9.79288387298584,-0.053270988166332245,0.05925649031996727
1763082721406417400,2.36341748046875,9.802460670471191,-0.053270988166332245,0.06404489278793335
1763082721408426000,2.365426025390625,9.778518676757812,-0.053270988166332245,0.0736217051744461
1763082721410434300,2.367434326171875,9.783307075500488,-0.0628477931022644,0.04967968538403511
1763082721412443000,2.36944287109375,9.807249069213867,-0.048482585698366165,0.06404489278793335
1763082721414451500,2.371451416015625,9.788095474243164,-0.053270988166332245,0.06404489278793335
1763082721416459800,2.373459716796875,9.79288387298584,-0.053270988166332245,0.0736217051744461
1763082721418468400,2.37546826171875,9.797672271728516,-0.053270988166332245,0.05925649031996727
1763082721420477000,2.377476806640625,9.797672271728516,-0.04369417950510979,0.04489128291606903
1763082721422485200,2.3794853515625,9.79288387298584,-0.058059390634298325,0.0736217051744461
1763082721424493800,2.381493896484375,9.79288387298584,-0.048482585698366165,0.05446808785200119
1763082721426502400,2.38350244140625,9.79288387298584,-0.048482585698366165,0.04489128291606903
1763082721428510700,2.3855107421875,9.797672271728516,-0.058059390634298325,0.05925649031996727
1763082721430519300,2.387519287109375,9.783307075500488,-0.053270988166332245,0.04489128291606903
1763082721432528000,2.38952783203125,9.788095474243164,-0.0628477931022644,0.06404489278793335
1763082721434536200,2.3915361328125,9.79288387298584,-0.053270988166332245,0.05925649031996727
1763082721436544800,2.393544677734375,9.778518676757812,-0.03890577703714371,0.06404489278793335
1763082721438553300,2.39555322265625,9.783307075500488,-0.04369417950510979,0.06404489278793335
1763082721440561700,2.397561767578125,9.788095474243164,-0.048482585698366165,0.0736217051744461
1763082721442570200,2.3995703125,9.807249069213867,-0.048482585698366165,0.04967968538403511
1763082721444578800,2.401578857421875,9.79288387298584,-0.04369417950510979,0.0736217051744461
1763082721446587100,2.403587158203125,9.79288387298584,-0.053270988166332245,0.06404489278793335
1763082721448595700,2.405595703125,9.807249069213867,-0.058059390634298325,0.06883329898118973
1763082721450604300,2.407604248046875,9.788095474243164,-0.048482585698366165,0.05446808785200119
1763082721452612600,2.409612548828125,9.802460670471191,-0.058059390634298325,0.0736217051744461
1763082721454621200,2.41162109375,9.788095474243164,-0.053270988166332245,0.04489128291606903
1763082721456629800,2.413629638671875,9.79288387298584,-0.058059390634298325,0.06883329898118973
1763082721458638000,2.41563818359375,9.802460670471191,-0.053270988166332245,0.04489128291606903
1763082721460646700,2.417646728515625,9.802460670471191,-0.048482585698366165,0.06883329898118973
1763082721462655200,2.4196552734375,9.788095474243164,-0.053270988166332245,0.05925649031996727
1763082721464663600,2.42166357421875,9.79288387298584,-0.04369417950510979,0.04967968538403511
1763082721466672000,2.423672119140625,9.807249069213867,-0.04369417950510979,0.05925649031996727
1763082721468680700,2.4256806640625,9.797672271728516,-0.04369417950510979,0.06883329898118973
1763082721470689000,2.42768896484375,9.79288387298584,-0.058059390634298325,0.04489128291606903
1763082721472697600,2.429697509765625,9.797672271728516,-0.04369417950510979,0.05925649031996727
1763082721474706000,2.431705810546875,9.802460670471191,-0.04369417950510979,0.04967968538403511
1763082721476714200,2.43371435546875,9.797672271728516,-0.06763619929552078,0.0736217051744461
1763082721478722800,2.435722900390625,9.821614265441895,-0.058059390634298325,0.04967968538403511
1763082721480731100,2.437731201171875,9.802460670471191,-0.048482585698366165,0.05446808785200119
1763082721482739700,2.43973974609375,9.788095474243164,-0.048482585698366165,0.04489128291606903
1763082721484748000,2.441748046875,9.816825866699219,-0.048482585698366165,0.05446808785200119
1763082721486756600,2.443756591796875,9.802460670471191,-0.058059390634298325,0.04967968538403511
1763082721488765000,2.445764892578125,9.79288387298584,-0.053270988166332245,0.05925649031996727
1763082721490773500,2.4477734375,9.788095474243164,-0.053270988166332245,0.06883329898118973
1763082721492781800,2.44978173828125,9.79288387298584,-0.058059390634298325,0.06883329898118973
1763082721494790400,2.451790283203125,9.79288387298584,-0.04369417950510979,0.06883329898118973
1763082721496798700,2.453798828125,9.79288387298584,-0.048482585698366165,0.06404489278793335
1763082721498807300,2.455807373046875,9.807249069213867,-0.03890577703714371,0.05925649031996727
1763082721500815600,2.457815673828125,9.816825866699219,-0.048482585698366165,0.06404489278793335
1763082721502824000,2.459823974609375,9.807249069213867,-0.06763619929552078,0.06404489278793335
1763082721504832500,2.46183251953125,9.807249069213867,-0.048482585698366165,0.06404489278793335
1763082721506840800,2.4638408203125,9.79288387298584,-0.03890577703714371,0.05446808785200119
1763082721508849400,2.465849365234375,9.802460670471191,-0.048482585698366165,0.06883329898118973
1763082721510857700,2.467857666015625,9.802460670471191,-0.053270988166332245,0.05446808785200119
1763082721512866300,2.4698662109375,9.812037467956543,-0.048482585698366165,0.05446808785200119
1763082721514874600,2.47187451171875,9.802460670471191,-0.058059390634298325,0.05925649031996727
1763082721516883200,2.47388330078125,9.812037467956543,-0.058059390634298325,0.07841010391712189
1763082721518891500,2.4758916015625,9.797672271728516,-0.0628477931022644,0.06883329898118973
1763082721520900000,2.477900146484375,9.778518676757812,-0.04369417950510979,0.06883329898118973
1763082721522908400,2.479908447265625,9.802460670471191,-0.053270988166332245,0.06404489278793335
1763082721524917000,2.4819169921875,9.812037467956543,-0.058059390634298325,0.0736217051744461
1763082721526925300,2.48392529296875,9.812037467956543,-0.053270988166332245,0.06883329898118973
1763082721528933600,2.48593359375,9.812037467956543,-0.053270988166332245,0.06883329898118973
1763082721530942200,2.487942138671875,9.79288387298584,-0.0628477931022644,0.05446808785200119
1763082721532950500,2.489950439453125,9.816825866699219,-0.048482585698366165,0.05925649031996727
1763082721534959000,2.491958984375,9.807249069213867,-0.048482585698366165,0.06883329898118973
1763082721536967400,2.493967529296875,9.831191062927246,-0.0628477931022644,0.05446808785200119
1763082721538976000,2.49597607421875,9.812037467956543,-0.03890577703714371,0.05925649031996727
1763082721540984300,2.497984375,9.812037467956543,-0.058059390634298325,0.05925649031996727
1763082721542993000,2.499992919921875,9.816825866699219,-0.048482585698366165,0.06404489278793335
1763082721545001500,2.50200146484375,9.797672271728516,-0.058059390634298325,0.06883329898118973
1763082721547009800,2.504009765625,9.812037467956543,-0.058059390634298325,0.06883329898118973
1763082721549018400,2.506018310546875,9.812037467956543,-0.048482585698366165,0.05925649031996727
1763082721551026700,2.508026611328125,9.812037467956543,-0.048482585698366165,0.06883329898118973
1763082721553035300,2.51003515625,9.821614265441895,-0.0628477931022644,0.06404489278793335
1763082721555043800,2.5120439453125,9.797672271728516,-0.04369417950510979,0.0736217051744461
1763082721557052200,2.51405224609375,9.797672271728516,-0.053270988166332245,0.05925649031996727
1763082721559060700,2.516060791015625,9.821614265441895,-0.04369417950510979,0.06404489278793335
1763082721561069300,2.5180693359375,9.807249069213867,-0.058059390634298325,0.04967968538403511
1763082721563077600,2.52007763671875,9.82640266418457,-0.048482585698366165,0.06404489278793335
1763082721565086200,2.522086181640625,9.802460670471191,-0.04369417950510979,0.04967968538403511
1763082721567094800,2.5240947265625,9.82640266418457,-0.053270988166332245,0.05446808785200119
1763082721569103000,2.52610302734375,9.802460670471191,-0.058059390634298325,0.06404489278793335
1763082721571111700,2.528111572265625,9.821614265441895,-0.058059390634298325,0.05925649031996727
1763082721573120300,2.530120361328125,9.802460670471191,-0.03890577703714371,0.0736217051744461
1763082721575128600,2.532128662109375,9.79288387298584,-0.048482585698366165,0.05925649031996727
1763082721577137200,2.53413720703125,9.802460670471191,-0.058059390634298325,0.04489128291606903
1763082721579145700,2.536145751953125,9.807249069213867,-0.053270988166332245,0.0736217051744461
1763082721581154000,2.538154052734375,9.821614265441895,-0.04369417950510979,0.04967968538403511
1763082721583162600,2.54016259765625,9.807249069213867,-0.058059390634298325,0.06404489278793335
1763082721585171200,2.542171142578125,9.807249069213867,-0.048482585698366165,0.06883329898118973
1763082721587179500,2.544179443359375,9.807249069213867,-0.04369417950510979,0.06883329898118973
1763082721589188000,2.54618798828125,9.812037467956543,-0.048482585698366165,0.05925649031996727
1763082721591196700,2.54819677734375,9.802460670471191,-0.053270988166332245,0.06883329898118973
1763082721593205000,2.550205078125,9.807249069213867,-0.048482585698366165,0.06404489278793335
1763082721595213600,2.552213623046875,9.812037467956543,-0.048482585698366165,0.0736217051744461
1763082721597222100,2.55422216796875,9.802460670471191,-0.053270988166332245,0.05446808785200119
1763082721599230500,2.55623046875,9.812037467956543,-0.06763619929552078,0.05446808785200119
1763082721601239000,2.558239013671875,9.816825866699219,-0.06763619929552078,0.05925649031996727
1763082721603247600,2.56024755859375,9.812037467956543,-0.048482585698366165,0.06883329898118973
1763082721605256000,2.562255859375,9.802460670471191,-0.048482585698366165,0.04967968538403511
1763082721607264500,2.564264404296875,9.821614265441895,-0.04369417950510979,0.06404489278793335
1763082721609273000,2.566273193359375,9.82640266418457,-0.04369417950510979,0.06404489278793335
1763082721611281400,2.568281494140625,9.812037467956543,-0.053270988166332245,0.05925649031996727
1763082721613290000,2.5702900390625,9.812037467956543,-0.04369417950510979,0.05446808785200119
1763082721615298600,2.572298583984375,9.807249069213867,-0.03411737456917763,0.06404489278793335
1763082721617307000,2.574306884765625,9.802460670471191,-0.048482585698366165,0.06404489278793335
1763082721619315500,2.5763154296875,9.802460670471191,-0.03411737456917763,0.05925649031996727
1763082721621324000,2.578323974609375,9.812037467956543,-0.058059390634298325,0.04489128291606903
1763082721623332400,2.580332275390625,9.797672271728516,-0.048482585698366165,0.06404489278793335
1763082721625341000,2.5823408203125,9.807249069213867,-0.058059390634298325,0.0736217051744461
1763082721627349500,2.584349609375,9.816825866699219,-0.04369417950510979,0.06404489278793335
1763082721629357800,2.58635791015625,9.816825866699219,-0.058059390634298325,0.05446808785200119
1763082721631366400,2.588366455078125,9.812037467956543,-0.058059390634298325,0.05925649031996727
1763082721633375000,2.590375,9.821614265441895,-0.048482585698366165,0.04967968538403511
1763082721635383300,2.59238330078125,9.816825866699219,-0.053270988166332245,0.06883329898118973
1763082721637392000,2.594391845703125,9.82640266418457,-0.07242459803819656,0.06404489278793335
1763082721639400400,2.596400390625,9.802460670471191,-0.048482585698366165,0.06404489278793335
1763082721641408800,2.59840869140625,9.807249069213867,-0.048482585698366165,0.04967968538403511
1763082721643417300,2.600417236328125,9.812037467956543,-0.048482585698366165,0.06883329898118973
1763082721645426000,2.602426025390625,9.82640266418457,-0.03890577703714371,0.05925649031996727
1763082721647434200,2.604434326171875,9.812037467956543,-0.058059390634298325,0.0736217051744461
1763082721649442800,2.60644287109375,9.821614265441895,-0.058059390634298325,0.06404489278793335
1763082721651451400,2.608451416015625,9.835979461669922,-0.03411737456917763,0.06883329898118973
1763082721653459700,2.610459716796875,9.812037467956543,-0.053270988166332245,0.05925649031996727
1763082721655468300,2.61246826171875,9.812037467956543,-0.0628477931022644,0.05446808785200119
1763082721657476900,2.614476806640625,9.807249069213867,-0.0293289702385664,0.04489128291606903
1763082721659485200,2.616485107421875,9.831191062927246,-0.053270988166332245,0.06883329898118973
1763082721661493800,2.61849365234375,9.816825866699219,-0.048482585698366165,0.05446808785200119
1763082721663502300,2.62050244140625,9.797672271728516,-0.04369417950510979,0.06404489278793335
1763082721665510700,2.6225107421875,9.797672271728516,-0.04369417950510979,0.05446808785200119
1763082721667519200,2.624519287109375,9.821614265441895,-0.053270988166332245,0.0736217051744461
1763082721669527800,2.62652783203125,9.816825866699219,-0.04369417950510979,0.06404489278793335
1763082721671536000,2.6285361328125,9.831191062927246,-0.048482585698366165,0.0736217051744461
1763082721673544700,2.630544677734375,9.816825866699219,-0.0628477931022644,0.06404489278793335
1763082721675553300,2.63255322265625,9.82640266418457,-0.053270988166332245,0.06404489278793335
1763082721677561600,2.6345615234375,9.831191062927246,-0.0628477931022644,0.05446808785200119
1763082721679570200,2.636570068359375,9.816825866699219,-0.058059390634298325,0.06404489278793335
1763082721681578800,2.638578857421875,9.802460670471191,-0.0628477931022644,0.04967968538403511
1763082721683587000,2.640587158203125,9.812037467956543,-0.0628477931022644,0.05446808785200119
1763082721685595600,2.642595703125,9.807249069213867,-0.058059390634298325,0.06883329898118973
1763082721687604200,2.644604248046875,9.831191062927246,-0.048482585698366165,0.04967968538403511
1763082721689612500,2.646612548828125,9.816825866699219,-0.03890577703714371,0.06404489278793335
1763082721691621000,2.64862109375,9.82640266418457,-0.048482585698366165,0.05446808785200119
1763082721693629700,2.650629638671875,9.802460670471191,-0.04369417950510979,0.06404489278793335
1763082721695638000,2.652637939453125,9.821614265441895,-0.053270988166332245,0.06883329898118973
1763082721697646600,2.654646484375,9.812037467956543,-0.048482585698366165,0.07841010391712189
1763082721699655000,2.656655029296875,9.812037467956543,-0.07242459803819656,0.05446808785200119
1763082721701663500,2.65866357421875,9.797672271728516,-0.048482585698366165,0.06883329898118973
1763082721703671800,2.660671875,9.812037467956543,-0.053270988166332245,0.06404489278793335
1763082721705680400,2.662680419921875,9.816825866699219,-0.048482585698366165,0.0736217051744461
1763082721707688700,2.664688720703125,9.82640266418457,-0.048482585698366165,0.04967968538403511
1763082721709697300,2.666697265625,9.802460670471191,-0.048482585698366165,0.06883329898118973
