time,seconds_elapsed,z,y,x
1762798092544744200,0.090744140625,9.794421195983887,0.09690931439399719,-0.1902294009923935
1762798092546818800,0.09281884765625,9.818349838256836,0.10169496387243271,-0.18065811693668365
1762798092548888000,0.09488818359375,9.808777809143066,0.09212367236614227,-0.1902294009923935
1762798092550957800,0.096957763671875,9.799206733703613,0.08733802288770676,-0.17587246000766754
1762798092553067000,0.09906689453125,9.80399227142334,0.08733802288770676,-0.1902294009923935
1762798092555172900,0.1011728515625,9.780064582824707,0.11126625537872314,-0.1902294009923935
1762798092557284400,0.103284423828125,9.794421195983887,0.11605189740657806,-0.18544375896453857
1762798092559393500,0.1053935546875,9.808777809143066,0.09690931439399719,-0.18544375896453857
1762798092561501200,0.107501220703125,9.790233612060547,0.08255238085985184,-0.1902294009923935
1762798092563611000,0.10961083984375,9.784850120544434,0.10169496387243271,-0.17587246000766754
1762798092565719800,0.1117197265625,9.794421195983887,0.10169496387243271,-0.1902294009923935
1762798092567828700,0.113828857421875,9.799206733703613,0.09212367236614227,-0.17587246000766754
1762798092569935400,0.115935302734375,9.799206733703613,0.08255238085985184,-0.17587246000766754
1762798092572044800,0.118044921875,9.78963565826416,0.08255238085985184,-0.18544375896453857
1762798092574152400,0.12015234375,9.80399227142334,0.09212367236614227,-0.1663011759519577
1762798092576262400,0.122262451171875,9.790233612060547,0.08255238085985184,-0.17108681797981262
1762798092578366700,0.12436669921875,9.794421195983887,0.09212367236614227,-0.1902294009923935
1762798092580466700,0.126466796875,9.77527904510498,0.09690931439399719,-0.18065811693668365
1762798092582588400,0.12858837890625,9.794421195983887,0.09212367236614227,-0.18065811693668365
1762798092584693200,0.130693359375,9.794421195983887,0.10648060590028763,-0.1902294009923935
1762798092586794500,0.13279443359375,9.78963565826416,0.09212367236614227,-0.17587246000766754
1762798092588913400,0.134913330078125,9.794421195983887,0.09690931439399719,-0.1950150430202484
1762798092591021600,0.137021484375,9.81356430053711,0.10648060590028763,-0.1902294009923935
1762798092593134600,0.139134521484375,9.81356430053711,0.10169496387243271,-0.1902294009923935
1762798092595240400,0.141240478515625,9.80399227142334,0.09212367236614227,-0.18065811693668365
1762798092597348400,0.143348388671875,9.827920913696289,0.0975075215101242,-0.17587246000766754
1762798092599457000,0.14545703125,9.81356430053711,0.08255238085985184,-0.18065811693668365
1762798092601565000,0.14756494140625,9.794421195983887,0.08733802288770676,-0.17587246000766754
1762798092603673000,0.149673095703125,9.78963565826416,0.10169496387243271,-0.17587246000766754
1762798092605781800,0.15178173828125,9.80399227142334,0.08255238085985184,-0.18544375896453857
1762798092607888400,0.153888427734375,9.794421195983887,0.08733802288770676,-0.18065811693668365
1762798092609998300,0.155998291015625,9.780064582824707,0.09690931439399719,-0.17587246000766754
1762798092612104000,0.15810400390625,9.7998046875,0.07776673883199692,-0.18544375896453857
1762798092614204700,0.16020458984375,9.804591178894043,0.0729810893535614,-0.18065811693668365
1762798092616322300,0.162322265625,9.799206733703613,0.10169496387243271,-0.18065811693668365
1762798092618416000,0.164416015625,9.80399227142334,0.08255238085985184,-0.18544375896453857
1762798092620535800,0.166535888671875,9.799206733703613,0.09690931439399719,-0.1950150430202484
1762798092622651000,0.16865087890625,9.799206733703613,0.11605189740657806,-0.1902294009923935
1762798092624763000,0.170762939453125,9.808777809143066,0.10648060590028763,-0.1950150430202484
1762798092626870800,0.172870849609375,9.823135375976562,0.09690931439399719,-0.19980068504810333
1762798092628976000,0.17497607421875,9.799206733703613,0.09212367236614227,-0.18065811693668365
1762798092631086000,0.177086181640625,9.81356430053711,0.09690931439399719,-0.17108681797981262
1762798092633194800,0.17919482421875,9.818349838256836,0.09212367236614227,-0.18544375896453857
1762798092635304000,0.181303955078125,9.799206733703613,0.09212367236614227,-0.18544375896453857
1762798092637410300,0.183410400390625,9.794421195983887,0.09212367236614227,-0.1902294009923935
1762798092639519700,0.185519775390625,9.80399227142334,0.09690931439399719,-0.18544375896453857
1762798092641627400,0.18762744140625,9.78963565826416,0.09690931439399719,-0.18544375896453857
1762798092643740700,0.18974072265625,9.80399227142334,0.10169496387243271,-0.19980068504810333
1762798092645866500,0.191866455078125,9.799206733703613,0.10169496387243271,-0.1902294009923935
1762798092647993300,0.193993408203125,9.799206733703613,0.09212367236614227,-0.1950150430202484
1762798092650072000,0.196072021484375,9.799206733703613,0.11126625537872314,-0.1950150430202484
1762798092652184300,0.198184326171875,9.80399227142334,0.10169496387243271,-0.1950150430202484
1762798092654303500,0.200303466796875,9.780064582824707,0.09690931439399719,-0.1902294009923935
1762798092656411000,0.202410888671875,9.794421195983887,0.10648060590028763,-0.18544375896453857
1762798092658514400,0.204514404296875,9.81356430053711,0.10648060590028763,-0.18544375896453857
1762798092660620500,0.20662060546875,9.80399227142334,0.11605189740657806,-0.19980068504810333
1762798092662727400,0.2087275390625,9.81356430053711,0.10169496387243271,-0.1902294009923935
1762798092664837000,0.210837158203125,9.80399227142334,0.11126625537872314,-0.18544375896453857
1762798092666945800,0.21294580078125,9.794421195983887,0.09690931439399719,-0.17108681797981262
1762798092669054000,0.215053955078125,9.799206733703613,0.09690931439399719,-0.17108681797981262
1762798092671161900,0.217161865234375,9.794421195983887,0.09690931439399719,-0.18544375896453857
1762798092673271000,0.21927099609375,9.80399227142334,0.08733802288770676,-0.17587246000766754
1762798092675378400,0.22137841796875,9.81356430053711,0.09212367236614227,-0.18065811693668365
1762798092677486000,0.223486083984375,9.78963565826416,0.10169496387243271,-0.18544375896453857
1762798092679594000,0.225593994140625,9.799206733703613,0.08733802288770676,-0.17108681797981262
1762798092681704000,0.227703857421875,9.799206733703613,0.09212367236614227,-0.17108681797981262
1762798092683809800,0.229809814453125,9.78963565826416,0.09690931439399719,-0.17587246000766754
1762798092685904600,0.231904541015625,9.80399227142334,0.09212367236614227,-0.17587246000766754
1762798092688010500,0.234010498046875,9.808777809143066,0.09690931439399719,-0.20458634197711945
1762798092690123800,0.236123779296875,9.794421195983887,0.10648060590028763,-0.18544375896453857
1762798092692252000,0.238251953125,9.808777809143066,0.10648060590028763,-0.18544375896453857
1762798092694361900,0.24036181640625,9.78963565826416,0.11126625537872314,-0.1950150430202484
1762798092696469200,0.24246923828125,9.81356430053711,0.09212367236614227,-0.18544375896453857
1762798092698574300,0.24457421875,9.80399227142334,0.09212367236614227,-0.18065811693668365
1762798092700683300,0.246683349609375,9.799206733703613,0.09690931439399719,-0.17587246000766754
1762798092702792400,0.24879248046875,9.799206733703613,0.09212367236614227,-0.18065811693668365
1762798092704899000,0.250899169921875,9.808777809143066,0.09212367236614227,-0.17108681797981262
1762798092707008500,0.253008544921875,9.794421195983887,0.09690931439399719,-0.18065811693668365
1762798092709116200,0.2551162109375,9.799206733703613,0.09212367236614227,-0.17587246000766754
1762798092711225900,0.257225830078125,9.77527904510498,0.10648060590028763,-0.18544375896453857
1762798092713333800,0.259333740234375,9.794421195983887,0.10169496387243271,-0.1902294009923935
1762798092715443700,0.261443603515625,9.78963565826416,0.09212367236614227,-0.1663011759519577
1762798092717551900,0.2635517578125,9.78963565826416,0.10648060590028763,-0.1902294009923935
1762798092719660300,0.265660400390625,9.808777809143066,0.10169496387243271,-0.1902294009923935
1762798092721768200,0.267768310546875,9.818349838256836,0.09212367236614227,-0.1902294009923935
1762798092723877000,0.269877197265625,9.808777809143066,0.10169496387243271,-0.18544375896453857
1762798092725985300,0.2719853515625,9.81356430053711,0.10648060590028763,-0.18544375896453857
1762798092728094500,0.274094482421875,9.818349838256836,0.10648060590028763,-0.18544375896453857
1762798092730202000,0.2762021484375,9.842277526855469,0.0975075215101242,-0.18544375896453857
1762798092732312300,0.278312255859375,9.78963565826416,0.11126625537872314,-0.18065811693668365
1762798092734420200,0.280420166015625,9.808777809143066,0.10169496387243271,-0.16151553392410278
1762798092736527000,0.282527099609375,9.80399227142334,0.09212367236614227,-0.17587246000766754
1762798092738631700,0.284631591796875,9.784850120544434,0.10648060590028763,-0.18065811693668365
1762798092740731400,0.2867314453125,9.760921478271484,0.10169496387243271,-0.17587246000766754
1762798092742852400,0.288852294921875,9.80399227142334,0.10169496387243271,-0.1902294009923935
1762798092744958700,0.290958740234375,9.799206733703613,0.08733802288770676,-0.1902294009923935
1762798092747058000,0.293057861328125,9.799206733703613,0.09690931439399719,-0.17108681797981262
1762798092749170000,0.295169921875,9.799206733703613,0.08733802288770676,-0.18544375896453857
1762798092751286000,0.2972861328125,9.799206733703613,0.09212367236614227,-0.1902294009923935
1762798092753401300,0.2994013671875,9.784850120544434,0.10169496387243271,-0.1950150430202484
1762798092755508200,0.30150830078125,9.799206733703613,0.09690931439399719,-0.18544375896453857
1762798092757615600,0.30361572265625,9.80399227142334,0.09690931439399719,-0.17587246000766754
1762798092759722800,0.30572265625,9.78963565826416,0.09690931439399719,-0.1950150430202484
1762798092761832200,0.307832275390625,9.78963565826416,0.09690931439399719,-0.18065811693668365
1762798092763940000,0.309940185546875,9.794421195983887,0.09690931439399719,-0.18544375896453857
1762798092766049500,0.312049560546875,9.80399227142334,0.11605189740657806,-0.1950150430202484
1762798092768158500,0.314158447265625,9.808777809143066,0.10648060590028763,-0.1902294009923935
1762798092770267400,0.316267333984375,9.799206733703613,0.09690931439399719,-0.1950150430202484
1762798092772374000,0.3183740234375,9.818349838256836,0.09212367236614227,-0.17587246000766754
1762798092774483500,0.3204833984375,9.808777809143066,0.09212367236614227,-0.18544375896453857
1762798092776591600,0.322591552734375,9.799206733703613,0.08733802288770676,-0.17587246000766754
1762798092778701000,0.324701171875,9.78963565826416,0.08255238085985184,-0.18544375896453857
1762798092780807400,0.326807373046875,9.794421195983887,0.10169496387243271,-0.18065811693668365
1762798092782908700,0.32890869140625,9.799206733703613,0.08255238085985184,-0.18544375896453857
1762798092785014800,0.331014892578125,9.794421195983887,0.08255238085985184,-0.18544375896453857
1762798092787153200,0.333153076171875,9.794421195983887,0.09690931439399719,-0.18544375896453857
1762798092789244700,0.33524462890625,9.780064582824707,0.10648060590028763,-0.18544375896453857
1762798092791356400,0.3373564453125,9.784850120544434,0.10169496387243271,-0.18544375896453857
1762798092793455600,0.33945556640625,9.80399227142334,0.09690931439399719,-0.1902294009923935
1762798092795569200,0.341569091796875,9.794421195983887,0.09690931439399719,-0.17587246000766754
1762798092797672700,0.343672607421875,9.80399227142334,0.10169496387243271,-0.1902294009923935
1762798092799775500,0.345775390625,9.818349838256836,0.10169496387243271,-0.18065811693668365
1762798092801893600,0.3478935546875,9.808777809143066,0.10169496387243271,-0.1950150430202484
1762798092804002800,0.3500029296875,9.799206733703613,0.10169496387243271,-0.18065811693668365
1762798092806114800,0.35211474609375,9.78963565826416,0.10169496387243271,-0.18065811693668365
1762798092808221400,0.354221435546875,9.794421195983887,0.09212367236614227,-0.1902294009923935
1762798092810329600,0.35632958984375,9.78963565826416,0.09212367236614227,-0.1902294009923935
1762798092812438300,0.358438232421875,9.81356430053711,0.10169496387243271,-0.19980068504810333
1762798092814546200,0.360546142578125,9.818349838256836,0.10169496387243271,-0.1950150430202484
1762798092816652500,0.362652587890625,9.784850120544434,0.11126625537872314,-0.1950150430202484
1762798092818744300,0.364744384765625,9.799206733703613,0.09212367236614227,-0.1902294009923935
1762798092820858600,0.366858642578125,9.80399227142334,0.09212367236614227,-0.1950150430202484
1762798092822978300,0.368978271484375,9.808777809143066,0.09212367236614227,-0.1950150430202484
1762798092825094400,0.371094482421875,9.784850120544434,0.08733802288770676,-0.17587246000766754
1762798092827201300,0.373201171875,9.780064582824707,0.09212367236614227,-0.19980068504810333
1762798092829307400,0.375307373046875,9.784850120544434,0.09690931439399719,-0.1902294009923935
1762798092831411200,0.3774111328125,9.78963565826416,0.11126625537872314,-0.20458634197711945
1762798092833510000,0.379510009765625,9.808777809143066,0.10169496387243271,-0.19980068504810333
1762798092835633400,0.38163330078125,9.808777809143066,0.10169496387243271,-0.1902294009923935
1762798092837742300,0.383742431640625,9.799206733703613,0.09212367236614227,-0.18065811693668365
1762798092839852800,0.385852783203125,9.808777809143066,0.09212367236614227,-0.1950150430202484
1762798092841958400,0.38795849609375,9.799206733703613,0.09212367236614227,-0.18544375896453857
1762798092844065800,0.390065673828125,9.78544807434082,0.0729810893535614,-0.1950150430202484
1762798092846175700,0.39217578125,9.7998046875,0.0729810893535614,-0.1902294009923935
1762798092848283600,0.39428369140625,9.78963565826416,0.09690931439399719,-0.1663011759519577
1762798092850393300,0.396393310546875,9.794421195983887,0.09212367236614227,-0.18065811693668365
1762798092852502300,0.398502197265625,9.78963565826416,0.09212367236614227,-0.18065811693668365
1762798092854610700,0.400610595703125,9.80399227142334,0.09690931439399719,-0.18544375896453857
1762798092856718000,0.402718017578125,9.827920913696289,0.11186445504426956,-0.18065811693668365
1762798092858827000,0.404826904296875,9.808777809143066,0.11126625537872314,-0.1950150430202484
1762798092860931600,0.406931640625,9.799206733703613,0.08733802288770676,-0.18065811693668365
1762798092863028200,0.4090283203125,9.799206733703613,0.09690931439399719,-0.1950150430202484
1762798092865141800,0.411141845703125,9.77527904510498,0.10648060590028763,-0.18544375896453857
1762798092867273200,0.413273193359375,9.770493507385254,0.09690931439399719,-0.19980068504810333
1762798092869372000,0.415371826171875,9.81356430053711,0.09690931439399719,-0.19980068504810333
1762798092871480300,0.417480224609375,9.794421195983887,0.10169496387243271,-0.18544375896453857
1762798092873582300,0.419582275390625,9.794421195983887,0.09690931439399719,-0.17108681797981262
1762798092875696600,0.421696533203125,9.794421195983887,0.09690931439399719,-0.17587246000766754
1762798092877804000,0.423803955078125,9.799206733703613,0.09212367236614227,-0.18544375896453857
1762798092879909600,0.42590966796875,9.794421195983887,0.10169496387243271,-0.17587246000766754
1762798092882005000,0.4280048828125,9.799206733703613,0.09212367236614227,-0.18065811693668365
1762798092884131300,0.43013134765625,9.799206733703613,0.10169496387243271,-0.18065811693668365
1762798092886239500,0.432239501953125,9.794421195983887,0.08733802288770676,-0.18544375896453857
1762798092888352000,0.43435205078125,9.818349838256836,0.08255238085985184,-0.17587246000766754
1762798092890455300,0.436455322265625,9.808777809143066,0.10169496387243271,-0.17108681797981262
1762798092892564500,0.438564453125,9.81356430053711,0.10648060590028763,-0.18065811693668365
1762798092894672400,0.44067236328125,9.80399227142334,0.09690931439399719,-0.17587246000766754
1762798092896780500,0.442780517578125,9.799206733703613,0.10648060590028763,-0.18065811693668365
1762798092898880000,0.4448798828125,9.808777809143066,0.09690931439399719,-0.18065811693668365
1762798092900982800,0.446982666015625,9.799206733703613,0.10169496387243271,-0.18065811693668365
1762798092903108000,0.449108154296875,9.808777809143066,0.10169496387243271,-0.17587246000766754
1762798092905219000,0.451218994140625,9.80399227142334,0.09690931439399719,-0.18065811693668365
1762798092907328800,0.453328857421875,9.80399227142334,0.10169496387243271,-0.1902294009923935
1762798092909433600,0.45543359375,9.780064582824707,0.09690931439399719,-0.17587246000766754
1762798092911541200,0.457541259765625,9.799206733703613,0.08255238085985184,-0.1950150430202484
1762798092913651000,0.45965087890625,9.784850120544434,0.09690931439399719,-0.1902294009923935
1762798092915750700,0.461750732421875,9.799206733703613,0.10169496387243271,-0.18065811693668365
1762798092917836000,0.4638359375,9.794421195983887,0.10648060590028763,-0.17108681797981262
1762798092919976700,0.465976806640625,9.81356430053711,0.10169496387243271,-0.1902294009923935
1762798092922085000,0.468085205078125,9.784850120544434,0.09690931439399719,-0.1950150430202484
1762798092924201000,0.470200927734375,9.81356430053711,0.10648060590028763,-0.1950150430202484
1762798092926301700,0.4723017578125,9.794421195983887,0.08733802288770676,-0.19980068504810333
1762798092928408000,0.474407958984375,9.837491989135742,0.08793623000383377,-0.20458634197711945
1762798092930517200,0.476517333984375,9.808777809143066,0.10648060590028763,-0.1902294009923935
1762798092932625200,0.478625244140625,9.794421195983887,0.10648060590028763,-0.1902294009923935
1762798092934730800,0.480730712890625,9.784850120544434,0.10648060590028763,-0.20458634197711945
1762798092936821000,0.482821044921875,9.780064582824707,0.10648060590028763,-0.20458634197711945
1762798092938921500,0.48492138671875,9.808777809143066,0.09690931439399719,-0.1902294009923935
1762798092941062100,0.487062255859375,9.81356430053711,0.10169496387243271,-0.17108681797981262
1762798092943175200,0.489175048828125,9.81356430053711,0.09690931439399719,-0.17108681797981262
1762798092945287200,0.491287109375,9.81356430053711,0.08733802288770676,-0.17108681797981262
1762798092947388700,0.493388671875,9.80399227142334,0.08733802288770676,-0.17108681797981262
1762798092949495800,0.495495849609375,9.770493507385254,0.08733802288770676,-0.17108681797981262
1762798092951605800,0.497605712890625,9.784850120544434,0.10169496387243271,-0.18544375896453857
1762798092953714200,0.499714111328125,9.784850120544434,0.09690931439399719,-0.1950150430202484
1762798092955822600,0.501822509765625,9.81356430053711,0.11126625537872314,-0.18065811693668365
1762798092957930200,0.50393017578125,9.80399227142334,0.09690931439399719,-0.18544375896453857
1762798092960035000,0.50603515625,9.799206733703613,0.09690931439399719,-0.17108681797981262
1762798092962130700,0.508130615234375,9.794421195983887,0.09212367236614227,-0.17587246000766754
1762798092964257000,0.510257080078125,9.827920913696289,0.0975075215101242,-0.17587246000766754
1762798092966364700,0.51236474609375,9.827920913696289,0.0975075215101242,-0.17108681797981262
1762798092968482300,0.514482421875,9.837491989135742,0.11186445504426956,-0.18065811693668365
1762798092970596400,0.516596435546875,9.794421195983887,0.08733802288770676,-0.1902294009923935
1762798092972692500,0.5186923828125,9.794421195983887,0.10169496387243271,-0.1950150430202484
1762798092974798800,0.520798828125,9.794421195983887,0.11605189740657806,-0.19980068504810333
1762798092976898300,0.522898193359375,9.78963565826416,0.09690931439399719,-0.19980068504810333
1762798092978983000,0.52498291015625,9.765707015991211,0.09212367236614227,-0.18544375896453857
1762798092981095400,0.527095458984375,9.765707015991211,0.11126625537872314,-0.18544375896453857
1762798092983216000,0.529216064453125,9.818349838256836,0.10169496387243271,-0.18544375896453857
1762798092985332700,0.531332763671875,9.818349838256836,0.09212367236614227,-0.1902294009923935
1762798092987441400,0.53344140625,9.823135375976562,0.08255238085985184,-0.17587246000766754
1762798092989546200,0.535546142578125,9.832706451416016,0.09690931439399719,-0.18065811693668365
1762798092991654000,0.53765380859375,9.81356430053711,0.10648060590028763,-0.1950150430202484
1762798092993763000,0.53976318359375,9.808777809143066,0.09690931439399719,-0.18544375896453857
1762798092995871000,0.54187109375,9.80399227142334,0.08733802288770676,-0.1902294009923935
1762798092997979100,0.543979248046875,9.799206733703613,0.09690931439399719,-0.1950150430202484
1762798093000087300,0.54608740234375,9.78963565826416,0.10648060590028763,-0.19980068504810333
1762798093002198300,0.5481982421875,9.780064582824707,0.11126625537872314,-0.20458634197711945
1762798093004307200,0.55030712890625,9.756135940551758,0.1010967567563057,-0.20458634197711945
1762798093006415400,0.552415283203125,9.765707015991211,0.09212367236614227,-0.1902294009923935
1762798093008522800,0.554522705078125,9.808777809143066,0.10648060590028763,-0.1950150430202484
1762798093010632000,0.5566318359375,9.818349838256836,0.09212367236614227,-0.18065811693668365
1762798093012739000,0.558739013671875,9.818349838256836,0.09690931439399719,-0.1663011759519577
1762798093014846200,0.56084619140625,9.823135375976562,0.09690931439399719,-0.17108681797981262
1762798093016957400,0.56295751953125,9.832706451416016,0.09272187948226929,-0.16151553392410278
1762798093019067000,0.56506689453125,9.823135375976562,0.09690931439399719,-0.17108681797981262
1762798093021176600,0.567176513671875,9.804591178894043,0.08255238085985184,-0.18065811693668365
1762798093023283700,0.56928369140625,9.77527904510498,0.09690931439399719,-0.18544375896453857
1762798093025391400,0.571391357421875,9.78963565826416,0.10169496387243271,-0.1663011759519577
1762798093027500800,0.573500732421875,9.770493507385254,0.10169496387243271,-0.18544375896453857
1762798093029608700,0.575608642578125,9.770493507385254,0.09690931439399719,-0.18065811693668365
1762798093031718100,0.57771826171875,9.77527904510498,0.09690931439399719,-0.15672987699508667
1762798093033825800,0.57982568359375,9.81356430053711,0.09212367236614227,-0.17587246000766754
1762798093035935700,0.581935791015625,9.842277526855469,0.10169496387243271,-0.1950150430202484
1762798093038044400,0.58404443359375,9.81356430053711,0.09690931439399719,-0.18065811693668365
1762798093040153900,0.58615380859375,9.784850120544434,0.09690931439399719,-0.1950150430202484
1762798093042257000,0.5882568359375,9.81356430053711,0.10169496387243271,-0.1902294009923935
1762798093044356400,0.5903564453125,9.794421195983887,0.10169496387243271,-0.18065811693668365
1762798093046476000,0.59247607421875,9.770493507385254,0.09690931439399719,-0.1902294009923935
1762798093048587000,0.5945869140625,9.765707015991211,0.09212367236614227,-0.1902294009923935
1762798093050701000,0.596701171875,9.770493507385254,0.09690931439399719,-0.1950150430202484
1762798093052812800,0.598812744140625,9.794421195983887,0.09690931439399719,-0.18544375896453857
1762798093054899500,0.6008994140625,9.78963565826416,0.09212367236614227,-0.1902294009923935
1762798093057019600,0.60301953125,9.827920913696289,0.09272187948226929,-0.18544375896453857
1762798093059124500,0.60512451171875,9.832706451416016,0.0975075215101242,-0.18065811693668365
1762798093061240300,0.607240234375,9.828518867492676,0.07357929646968842,-0.17587246000766754
1762798093063346400,0.609346435546875,9.818349838256836,0.08733802288770676,-0.17108681797981262
1762798093065456000,0.6114560546875,9.808777809143066,0.09212367236614227,-0.17587246000766754
1762798093067563500,0.6135634765625,9.808777809143066,0.11126625537872314,-0.19980068504810333
1762798093069673200,0.615673095703125,9.808777809143066,0.10648060590028763,-0.1950150430202484
1762798093071781600,0.61778173828125,9.784850120544434,0.09690931439399719,-0.20458634197711945
1762798093073890000,0.61989013671875,9.765707015991211,0.09690931439399719,-0.1902294009923935
1762798093075997700,0.621997802734375,9.780064582824707,0.09212367236614227,-0.18544375896453857
1762798093078103300,0.624103271484375,9.799206733703613,0.09212367236614227,-0.18544375896453857
1762798093080200000,0.626199951171875,9.80399227142334,0.10648060590028763,-0.17108681797981262
1762798093082324500,0.628324462890625,9.80399227142334,0.10169496387243271,-0.17108681797981262
1762798093084432400,0.630432373046875,9.827920913696289,0.09272187948226929,-0.1663011759519577
1762798093086547500,0.63254736328125,9.837491989135742,0.10229317098855972,-0.17108681797981262
1762798093088650500,0.634650390625,9.832706451416016,0.09272187948226929,-0.18065811693668365
1762798093090758700,0.636758544921875,9.81356430053711,0.10169496387243271,-0.16151553392410278
1762798093092866000,0.638865966796875,9.784850120544434,0.10169496387243271,-0.18065811693668365
1762798093094975500,0.6409755859375,9.799206733703613,0.08733802288770676,-0.19980068504810333
1762798093097083600,0.643083740234375,9.78963565826416,0.08733802288770676,-0.18065811693668365
1762798093099193000,0.645193115234375,9.770493507385254,0.11126625537872314,-0.1950150430202484
1762798093101300700,0.64730078125,9.780064582824707,0.10169496387243271,-0.1950150430202484
1762798093103408000,0.649408203125,9.794421195983887,0.11126625537872314,-0.19980068504810333
1762798093105509000,0.651509033203125,9.823135375976562,0.08315058797597885,-0.18544375896453857
1762798093107628800,0.65362890625,9.81356430053711,0.09690931439399719,-0.18065811693668365
1762798093109735200,0.655735107421875,9.808777809143066,0.10169496387243271,-0.1902294009923935
1762798093111847200,0.65784716796875,9.81356430053711,0.08733802288770676,-0.19980068504810333
1762798093113950500,0.659950439453125,9.804591178894043,0.06819544732570648,-0.19980068504810333
1762798093116054000,0.662053955078125,9.80399227142334,0.09212367236614227,-0.18544375896453857
1762798093118162700,0.66416259765625,9.780064582824707,0.10169496387243271,-0.19980068504810333
1762798093120278000,0.666278076171875,9.794421195983887,0.09212367236614227,-0.21415762603282928
1762798093122389500,0.668389404296875,9.808777809143066,0.08733802288770676,-0.18544375896453857
1762798093124498000,0.670497802734375,9.794421195983887,0.09690931439399719,-0.1902294009923935
1762798093126604300,0.672604248046875,9.80399227142334,0.09690931439399719,-0.17587246000766754
1762798093128713200,0.674713134765625,9.823135375976562,0.09212367236614227,-0.18544375896453857
1762798093130821000,0.676821044921875,9.827920913696289,0.10229317098855972,-0.1663011759519577
1762798093132930800,0.678930908203125,9.80399227142334,0.10169496387243271,-0.17108681797981262
1762798093135038200,0.6810380859375,9.799206733703613,0.10648060590028763,-0.18544375896453857
1762798093137148700,0.683148681640625,9.77527904510498,0.10169496387243271,-0.1902294009923935
1762798093139256800,0.6852568359375,9.78963565826416,0.10648060590028763,-0.18065811693668365
1762798093141363500,0.687363525390625,9.799206733703613,0.11605189740657806,-0.17587246000766754
1762798093143466500,0.689466552734375,9.784850120544434,0.10648060590028763,-0.17587246000766754
1762798093145585200,0.691585205078125,9.780064582824707,0.10648060590028763,-0.18544375896453857
1762798093147707100,0.69370703125,9.784850120544434,0.11605189740657806,-0.18065811693668365
1762798093149815000,0.69581494140625,9.7998046875,0.07776673883199692,-0.18065811693668365
1762798093151918300,0.69791845703125,9.794421195983887,0.09690931439399719,-0.17108681797981262
1762798093154051300,0.70005126953125,9.795019149780273,0.07776673883199692,-0.18544375896453857
1762798093156121600,0.70212158203125,9.823135375976562,0.09272187948226929,-0.16151553392410278
1762798093158246700,0.70424658203125,9.80399227142334,0.09212367236614227,-0.17108681797981262
1762798093160349200,0.70634912109375,9.818349838256836,0.09690931439399719,-0.17108681797981262
1762798093162468400,0.70846826171875,9.794421195983887,0.09212367236614227,-0.1902294009923935
1762798093164573400,0.710573486328125,9.808777809143066,0.09690931439399719,-0.18544375896453857
1762798093166681600,0.712681640625,9.80399227142334,0.10169496387243271,-0.1902294009923935
1762798093168789200,0.714789306640625,9.780064582824707,0.09690931439399719,-0.1950150430202484
1762798093170899200,0.716899169921875,9.780064582824707,0.10648060590028763,-0.19980068504810333
1762798093173008100,0.719008056640625,9.77527904510498,0.11605189740657806,-0.1950150430202484
1762798093175117000,0.721116943359375,9.78963565826416,0.10648060590028763,-0.1902294009923935
1762798093177224000,0.723223876953125,9.80399227142334,0.10169496387243271,-0.20458634197711945
1762798093179333000,0.7253330078125,9.80399227142334,0.09212367236614227,-0.17587246000766754
1762798093181441000,0.72744091796875,9.799206733703613,0.10648060590028763,-0.18544375896453857
1762798093183550500,0.729550537109375,9.81356430053711,0.08733802288770676,-0.18544375896453857
1762798093185657900,0.731657958984375,9.794421195983887,0.10169496387243271,-0.1902294009923935
1762798093187765800,0.733765869140625,9.80399227142334,0.08255238085985184,-0.19980068504810333
1762798093189874400,0.73587451171875,9.78963565826416,0.09212367236614227,-0.18065811693668365
1762798093191982800,0.73798291015625,9.77527904510498,0.09212367236614227,-0.18065811693668365
1762798093194092800,0.7400927734375,9.794421195983887,0.08255238085985184,-0.1950150430202484
1762798093196203300,0.742203369140625,9.780064582824707,0.08733802288770676,-0.18065811693668365
1762798093198297900,0.7442978515625,9.80399227142334,0.11126625537872314,-0.1663011759519577
1762798093200419800,0.746419921875,9.784850120544434,0.10169496387243271,-0.17587246000766754
1762798093202526000,0.74852587890625,9.80399227142334,0.10648060590028763,-0.18065811693668365
1762798093204640000,0.750639892578125,9.80399227142334,0.11126625537872314,-0.18544375896453857
1762798093206745600,0.75274560546875,9.81356430053711,0.10648060590028763,-0.17587246000766754
1762798093208853800,0.754853759765625,9.80399227142334,0.10169496387243271,-0.1902294009923935
1762798093210955800,0.756955810546875,9.794421195983887,0.10648060590028763,-0.1902294009923935
1762798093213044000,0.7590439453125,9.780064582824707,0.10169496387243271,-0.18544375896453857
1762798093215157800,0.76115771484375,9.799206733703613,0.11126625537872314,-0.18065811693668365
1762798093217270500,0.7632705078125,9.80399227142334,0.11126625537872314,-0.18544375896453857
1762798093219399400,0.7653994140625,9.799206733703613,0.08733802288770676,-0.18544375896453857
1762798093221521700,0.767521728515625,9.808777809143066,0.09212367236614227,-0.18065811693668365
1762798093223638000,0.769637939453125,9.794421195983887,0.09212367236614227,-0.17108681797981262
1762798093225754400,0.77175439453125,9.784850120544434,0.11126625537872314,-0.18065811693668365
1762798093227831600,0.77383154296875,9.81356430053711,0.09212367236614227,-0.18065811693668365
1762798093229956400,0.775956298828125,9.80937671661377,0.07776673883199692,-0.18544375896453857
1762798093232078300,0.778078369140625,9.808777809143066,0.09690931439399719,-0.18065811693668365
1762798093234161000,0.780160888671875,9.794421195983887,0.10169496387243271,-0.18544375896453857
1762798093236264700,0.7822646484375,9.794421195983887,0.09212367236614227,-0.18544375896453857
1762798093238368500,0.784368408203125,9.784850120544434,0.10169496387243271,-0.1902294009923935
1762798093240483000,0.786483154296875,9.794421195983887,0.10169496387243271,-0.18544375896453857
1762798093242592300,0.78859228515625,9.78963565826416,0.10169496387243271,-0.18544375896453857
1762798093244698600,0.79069873046875,9.799206733703613,0.10169496387243271,-0.18065811693668365
1762798093246803500,0.792803466796875,9.818349838256836,0.09212367236614227,-0.1902294009923935
1762798093248900400,0.794900390625,9.81356430053711,0.08733802288770676,-0.18065811693668365
1762798093251004700,0.797004638671875,9.80399227142334,0.08255238085985184,-0.18544375896453857
1762798093253116700,0.79911669921875,9.80399227142334,0.09690931439399719,-0.1902294009923935
1762798093255244000,0.801244140625,9.80399227142334,0.09690931439399719,-0.17108681797981262
1762798093257356000,0.80335595703125,9.81356430053711,0.09212367236614227,-0.18065811693668365
1762798093259464400,0.80546435546875,9.808777809143066,0.09690931439399719,-0.1663011759519577
1762798093261568000,0.807568115234375,9.80399227142334,0.08733802288770676,-0.18065811693668365
1762798093263676700,0.8096767578125,9.78963565826416,0.09690931439399719,-0.1902294009923935
1762798093265784800,0.811784912109375,9.799206733703613,0.11126625537872314,-0.17587246000766754
1762798093267890400,0.813890380859375,9.780064582824707,0.10169496387243271,-0.18544375896453857
1762798093269985300,0.8159853515625,9.780064582824707,0.09690931439399719,-0.18544375896453857
1762798093272111900,0.81811181640625,9.77527904510498,0.10169496387243271,-0.18544375896453857
1762798093274220300,0.82022021484375,9.78963565826416,0.10648060590028763,-0.1950150430202484
1762798093276332800,0.822332763671875,9.794421195983887,0.09690931439399719,-0.18544375896453857
1762798093278436400,0.824436279296875,9.81356430053711,0.09212367236614227,-0.18065811693668365
1762798093280545500,0.826545654296875,9.80399227142334,0.09212367236614227,-0.18065811693668365
1762798093282647600,0.8286474609375,9.818349838256836,0.10648060590028763,-0.18544375896453857
1762798093284735700,0.83073583984375,9.794421195983887,0.10648060590028763,-0.1902294009923935
1762798093286858200,0.832858154296875,9.799206733703613,0.10169496387243271,-0.18065811693668365
1762798093288976600,0.8349765625,9.80399227142334,0.11126625537872314,-0.17108681797981262
1762798093291078400,0.837078369140625,9.80399227142334,0.09212367236614227,-0.18065811693668365
1762798093293200400,0.839200439453125,9.799206733703613,0.09212367236614227,-0.18544375896453857
1762798093295304700,0.8413046875,9.795019149780273,0.07776673883199692,-0.18544375896453857
1762798093297418500,0.84341845703125,9.823135375976562,0.10169496387243271,-0.1663011759519577
1762798093299522300,0.845522216796875,9.81356430053711,0.10648060590028763,-0.17587246000766754
1762798093301631700,0.8476318359375,9.794421195983887,0.10648060590028763,-0.1902294009923935
1762798093303739400,0.849739501953125,9.823135375976562,0.08733802288770676,-0.18544375896453857
1762798093305849600,0.851849609375,9.804591178894043,0.08255238085985184,-0.17108681797981262
1762798093307958000,0.8539580078125,9.80399227142334,0.10169496387243271,-0.18065811693668365
1762798093310063000,0.85606298828125,9.784850120544434,0.09690931439399719,-0.18544375896453857
1762798093312158200,0.858158203125,9.784850120544434,0.10169496387243271,-0.17587246000766754
1762798093314283000,0.860282958984375,9.81356430053711,0.10648060590028763,-0.1902294009923935
1762798093316390400,0.862390380859375,9.794421195983887,0.10169496387243271,-0.17587246000766754
1762798093318502100,0.864502197265625,9.80399227142334,0.10169496387243271,-0.1902294009923935
1762798093320606200,0.866606201171875,9.794421195983887,0.11126625537872314,-0.18065811693668365
1762798093322716000,0.8687158203125,9.818349838256836,0.10169496387243271,-0.18065811693668365
1762798093324825000,0.8708251953125,9.81356430053711,0.09690931439399719,-0.18065811693668365
1762798093326931000,0.872930908203125,9.780064582824707,0.08255238085985184,-0.1902294009923935
1762798093329017300,0.875017333984375,9.784850120544434,0.09212367236614227,-0.18544375896453857
1762798093331113500,0.877113525390625,9.790233612060547,0.07776673883199692,-0.18065811693668365
1762798093333248800,0.879248779296875,9.799206733703613,0.10169496387243271,-0.18544375896453857
1762798093335384800,0.881384765625,9.795019149780273,0.07776673883199692,-0.18544375896453857
1762798093337485800,0.88348583984375,9.784850120544434,0.09690931439399719,-0.18544375896453857
1762798093339590100,0.885590087890625,9.808777809143066,0.09690931439399719,-0.19980068504810333
1762798093341692400,0.8876923828125,9.794421195983887,0.09690931439399719,-0.18065811693668365
1762798093343803400,0.889803466796875,9.784850120544434,0.09212367236614227,-0.18065811693668365
1762798093345911300,0.891911376953125,9.794421195983887,0.09212367236614227,-0.1902294009923935
1762798093348020200,0.894020263671875,9.799206733703613,0.10169496387243271,-0.1950150430202484
1762798093350128000,0.896128173828125,9.81356430053711,0.10648060590028763,-0.18065811693668365
1762798093352238000,0.898238037109375,9.80399227142334,0.09212367236614227,-0.17587246000766754
1762798093354347500,0.900347412109375,9.78963565826416,0.09212367236614227,-0.18065811693668365
1762798093356462300,0.90246240234375,9.81356430053711,0.10648060590028763,-0.18065811693668365
1762798093358564000,0.904564208984375,9.80399227142334,0.08733802288770676,-0.17108681797981262
1762798093360672300,0.90667236328125,9.794421195983887,0.10648060590028763,-0.18544375896453857
1762798093362778400,0.9087783203125,9.78963565826416,0.09212367236614227,-0.18544375896453857
1762798093364885200,0.91088525390625,9.799206733703613,0.09690931439399719,-0.18065811693668365
1762798093366976800,0.912976806640625,9.784850120544434,0.10648060590028763,-0.1950150430202484
1762798093369095200,0.91509521484375,9.784850120544434,0.09212367236614227,-0.1902294009923935
1762798093371234000,0.917234130859375,9.794421195983887,0.10648060590028763,-0.1902294009923935
1762798093373324500,0.919324462890625,9.794421195983887,0.10169496387243271,-0.17587246000766754
1762798093375420000,0.921419921875,9.823135375976562,0.09690931439399719,-0.18065811693668365
1762798093377535200,0.92353515625,9.799206733703613,0.09690931439399719,-0.18065811693668365
1762798093379646700,0.925646728515625,9.799206733703613,0.09212367236614227,-0.18544375896453857
1762798093381759500,0.927759521484375,9.794421195983887,0.09690931439399719,-0.18065811693668365
1762798093383861500,0.929861572265625,9.808777809143066,0.10169496387243271,-0.20458634197711945
1762798093385974300,0.931974365234375,9.794421195983887,0.09690931439399719,-0.1902294009923935
1762798093388079400,0.934079345703125,9.794421195983887,0.08255238085985184,-0.19980068504810333
1762798093390170400,0.93617041015625,9.78963565826416,0.09212367236614227,-0.1950150430202484
1762798093392268300,0.938268310546875,9.78963565826416,0.10648060590028763,-0.17587246000766754
1762798093394376700,0.940376708984375,9.80399227142334,0.09212367236614227,-0.18544375896453857
1762798093396491800,0.94249169921875,9.818349838256836,0.09690931439399719,-0.18544375896453857
1762798093398616800,0.944616943359375,9.81356430053711,0.09690931439399719,-0.17108681797981262
1762798093400721700,0.9467216796875,9.780064582824707,0.10169496387243271,-0.17587246000766754
1762798093402824000,0.948823974609375,9.760921478271484,0.09690931439399719,-0.19980068504810333
1762798093404938000,0.95093798828125,9.7998046875,0.0729810893535614,-0.1950150430202484
1762798093407048000,0.9530478515625,9.78963565826416,0.10169496387243271,-0.18065811693668365
1762798093409159000,0.955158935546875,9.78963565826416,0.10648060590028763,-0.20937198400497437
1762798093411264800,0.9572646484375,9.808777809143066,0.10169496387243271,-0.18065811693668365
1762798093413372400,0.959372314453125,9.808777809143066,0.08733802288770676,-0.1663011759519577
1762798093415481900,0.96148193359375,9.81356430053711,0.09690931439399719,-0.18065811693668365
1762798093417589500,0.963589599609375,9.81356430053711,0.08255238085985184,-0.18065811693668365
1762798093419699500,0.965699462890625,9.794421195983887,0.09690931439399719,-0.17108681797981262
1762798093421806800,0.967806884765625,9.799206733703613,0.09690931439399719,-0.18065811693668365
1762798093423916500,0.96991650390625,9.794421195983887,0.09212367236614227,-0.17587246000766754
1762798093426025000,0.97202490234375,9.81356430053711,0.09212367236614227,-0.17108681797981262
1762798093428129500,0.974129638671875,9.794421195983887,0.09212367236614227,-0.1950150430202484
1762798093430225400,0.976225341796875,9.78963565826416,0.11126625537872314,-0.1950150430202484
1762798093432350500,0.9783505859375,9.80399227142334,0.12083754688501358,-0.18065811693668365
1762798093434458000,0.9804580078125,9.833304405212402,0.054436713457107544,-0.17587246000766754
1762798093436570400,0.9825703125,9.736993789672852,0.11545369029045105,-0.20937198400497437
1762798093438674000,0.984673828125,9.794421195983887,0.09690931439399719,-0.17587246000766754
1762798093440783600,0.98678369140625,9.823135375976562,0.09212367236614227,-0.1902294009923935
1762798093442892800,0.988892822265625,9.794421195983887,0.09690931439399719,-0.1902294009923935
1762798093445003500,0.99100341796875,9.780064582824707,0.10169496387243271,-0.18065811693668365
1762798093447110100,0.993110107421875,9.80937671661377,0.0729810893535614,-0.17108681797981262
1762798093449219600,0.995219482421875,9.77527904510498,0.09212367236614227,-0.1902294009923935
1762798093451327000,0.997326904296875,9.80399227142334,0.08733802288770676,-0.18544375896453857
1762798093453437000,0.99943701171875,9.827920913696289,0.08733802288770676,-0.1950150430202484
1762798093455544800,1.001544921875,9.82373332977295,0.0729810893535614,-0.1902294009923935
1762798093457654300,1.003654296875,9.78963565826416,0.10648060590028763,-0.1950150430202484
1762798093459762700,1.0057626953125,9.808777809143066,0.09212367236614227,-0.1902294009923935
1762798093461870800,1.007870849609375,9.823135375976562,0.09690931439399719,-0.18065811693668365
1762798093463975200,1.00997509765625,9.794421195983887,0.10169496387243271,-0.17587246000766754
1762798093466071000,1.012071044921875,9.823135375976562,0.10648060590028763,-0.18065811693668365
1762798093468185600,1.014185546875,9.81356430053711,0.11605189740657806,-0.1902294009923935
1762798093470302200,1.01630224609375,9.78963565826416,0.09690931439399719,-0.1950150430202484
1762798093472404000,1.018404052734375,9.808777809143066,0.09690931439399719,-0.19980068504810333
1762798093474526000,1.02052587890625,9.80399227142334,0.10169496387243271,-0.18544375896453857
1762798093476631300,1.02263134765625,9.751350402832031,0.10169496387243271,-0.1902294009923935
1762798093478743000,1.024742919921875,9.808777809143066,0.09690931439399719,-0.18544375896453857
1762798093480847400,1.026847412109375,9.823135375976562,0.09690931439399719,-0.17108681797981262
1762798093482956800,1.028956787109375,9.78963565826416,0.10648060590028763,-0.1663011759519577
1762798093485064400,1.031064453125,9.780662536621094,0.07776673883199692,-0.17587246000766754
1762798093487174400,1.03317431640625,9.78544807434082,0.08255238085985184,-0.17587246000766754
1762798093489281800,1.03528173828125,9.794421195983887,0.08733802288770676,-0.16151553392410278
1762798093491391700,1.037391845703125,9.81356430053711,0.09690931439399719,-0.17587246000766754
1762798093493497000,1.0394970703125,9.81356430053711,0.08733802288770676,-0.18544375896453857
1762798093495596800,1.0415966796875,9.760921478271484,0.10169496387243271,-0.19980068504810333
1762798093497716200,1.04371630859375,9.78963565826416,0.10169496387243271,-0.17108681797981262
1762798093499826200,1.045826171875,9.794421195983887,0.11605189740657806,-0.19980068504810333
1762798093501942300,1.0479423828125,9.799206733703613,0.11126625537872314,-0.20937198400497437
1762798093504056800,1.050056884765625,9.823135375976562,0.09690931439399719,-0.20937198400497437
1762798093506150100,1.052150146484375,9.78963565826416,0.11605189740657806,-0.21415762603282928
1762798093508258000,1.054258056640625,9.794421195983887,0.11605189740657806,-0.1950150430202484
1762798093510361300,1.056361328125,9.837491989135742,0.07836493849754333,-0.20937198400497437
1762798093512466200,1.058466064453125,9.780064582824707,0.10169496387243271,-0.1950150430202484
1762798093514585000,1.060585205078125,9.80399227142334,0.09690931439399719,-0.1902294009923935
1762798093516694500,1.062694580078125,9.81356430053711,0.08733802288770676,-0.1902294009923935
1762798093518805000,1.064804931640625,9.81356430053711,0.09212367236614227,-0.1950150430202484
1762798093520911600,1.06691162109375,9.780064582824707,0.10169496387243271,-0.18065811693668365
1762798093523019500,1.06901953125,9.799206733703613,0.08733802288770676,-0.18544375896453857
1762798093525129200,1.071129150390625,9.77527904510498,0.09212367236614227,-0.17587246000766754
1762798093527238000,1.07323779296875,9.794421195983887,0.09212367236614227,-0.1902294009923935
1762798093529345800,1.075345703125,9.823135375976562,0.09690931439399719,-0.18544375896453857
1762798093531453700,1.07745361328125,9.78963565826416,0.11126625537872314,-0.1950150430202484
1762798093533563000,1.07956298828125,9.794421195983887,0.11605189740657806,-0.17587246000766754
1762798093535670800,1.0816708984375,9.808777809143066,0.09690931439399719,-0.18065811693668365
1762798093537780200,1.0837802734375,9.80399227142334,0.10169496387243271,-0.18544375896453857
1762798093539887600,1.0858876953125,9.81356430053711,0.10169496387243271,-0.17108681797981262
1762798093541993500,1.087993408203125,9.794421195983887,0.10648060590028763,-0.17108681797981262
1762798093544090600,1.090090576171875,9.780064582824707,0.10169496387243271,-0.18065811693668365
1762798093546202000,1.0922021484375,9.799206733703613,0.08255238085985184,-0.18065811693668365
1762798093548322800,1.09432275390625,9.77527904510498,0.09690931439399719,-0.1902294009923935
1762798093550435000,1.09643505859375,9.818349838256836,0.10169496387243271,-0.1663011759519577
1762798093552542700,1.098542724609375,9.814162254333496,0.07776673883199692,-0.17587246000766754
1762798093554649000,1.100649169921875,9.78963565826416,0.08733802288770676,-0.17108681797981262
1762798093556756700,1.1027568359375,9.794421195983887,0.09212367236614227,-0.1902294009923935
1762798093558867500,1.104867431640625,9.818349838256836,0.08793623000383377,-0.17108681797981262
1762798093560979200,1.106979248046875,9.794421195983887,0.08255238085985184,-0.19980068504810333
1762798093563083000,1.1090830078125,9.808777809143066,0.12083754688501358,-0.1902294009923935
1762798093565186000,1.11118603515625,9.81356430053711,0.10169496387243271,-0.19980068504810333
1762798093567287800,1.113287841796875,9.784850120544434,0.10169496387243271,-0.19980068504810333
1762798093569407000,1.115406982421875,9.818349838256836,0.11126625537872314,-0.20458634197711945
1762798093571518500,1.1175185546875,9.823135375976562,0.09690931439399719,-0.19980068504810333
1762798093573628400,1.11962841796875,9.80399227142334,0.11126625537872314,-0.1950150430202484
1762798093575735600,1.121735595703125,9.81356430053711,0.09690931439399719,-0.19980068504810333
1762798093577844000,1.123843994140625,9.780064582824707,0.08733802288770676,-0.19980068504810333
1762798093579953200,1.125953125,9.784850120544434,0.11126625537872314,-0.1950150430202484
1762798093582059800,1.128059814453125,9.827920913696289,0.10169496387243271,-0.18544375896453857
1762798093584169000,1.1301689453125,9.78963565826416,0.08733802288770676,-0.17587246000766754
1762798093586276600,1.132276611328125,9.81356430053711,0.09690931439399719,-0.17108681797981262
1762798093588386600,1.134386474609375,9.82373332977295,0.06340979784727097,-0.18065811693668365
1762798093590494500,1.136494384765625,9.78963565826416,0.09690931439399719,-0.17587246000766754
1762798093592604200,1.138604248046875,9.799206733703613,0.09690931439399719,-0.15672987699508667
1762798093594712600,1.140712646484375,9.818947792053223,0.06819544732570648,-0.17587246000766754
1762798093596820700,1.14282080078125,9.760921478271484,0.10169496387243271,-0.17108681797981262
1762798093598928600,1.1449287109375,9.799206733703613,0.10648060590028763,-0.1663011759519577
1762798093601034800,1.14703466796875,9.818349838256836,0.10169496387243271,-0.18065811693668365
1762798093603133200,1.14913330078125,9.799206733703613,0.11126625537872314,-0.17587246000766754
1762798093605255200,1.151255126953125,9.798608779907227,0.1256231814622879,-0.1902294009923935
1762798093607363000,1.153363037109375,9.81356430053711,0.10648060590028763,-0.19980068504810333
1762798093609476400,1.155476318359375,9.823135375976562,0.09212367236614227,-0.17108681797981262
1762798093611581400,1.15758154296875,9.80399227142334,0.09212367236614227,-0.1902294009923935
1762798093613689600,1.159689697265625,9.794421195983887,0.11605189740657806,-0.18544375896453857
1762798093615797200,1.16179736328125,9.823135375976562,0.09212367236614227,-0.17108681797981262
1762798093617906700,1.16390673828125,9.804591178894043,0.07776673883199692,-0.17587246000766754
1762798093620014600,1.1660146484375,9.804591178894043,0.07776673883199692,-0.17587246000766754
1762798093622124000,1.1681240234375,9.81356430053711,0.09212367236614227,-0.18544375896453857
1762798093624231700,1.170231689453125,9.818349838256836,0.08733802288770676,-0.18065811693668365
1762798093626341600,1.172341552734375,9.780064582824707,0.11126625537872314,-0.20937198400497437
1762798093628447500,1.174447509765625,9.808777809143066,0.08733802288770676,-0.1902294009923935
1762798093630548000,1.1765478515625,9.795019149780273,0.07776673883199692,-0.1950150430202484
1762798093632666000,1.178666015625,9.77527904510498,0.10169496387243271,-0.1902294009923935
1762798093634772500,1.1807724609375,9.770493507385254,0.12083754688501358,-0.20458634197711945
1762798093636873700,1.182873779296875,9.81356430053711,0.09690931439399719,-0.1902294009923935
1762798093638991600,1.18499169921875,9.794421195983887,0.09690931439399719,-0.18065811693668365
1762798093641100500,1.1871005859375,9.812965393066406,0.1256231814622879,-0.18065811693668365
1762798093643213300,1.18921337890625,9.832706451416016,0.10707881301641464,-0.18065811693668365
1762798093645323000,1.191322998046875,9.80399227142334,0.10169496387243271,-0.17108681797981262
1762798093647448300,1.1934482421875,9.818349838256836,0.10169496387243271,-0.1902294009923935
1762798093649563400,1.1955634765625,9.818349838256836,0.08793623000383377,-0.17108681797981262
1762798093651661600,1.19766162109375,9.80399227142334,0.08255238085985184,-0.1902294009923935
1762798093653765400,1.199765380859375,9.794421195983887,0.08255238085985184,-0.18544375896453857
1762798093655872300,1.201872314453125,9.795019149780273,0.08255238085985184,-0.1663011759519577
1762798093657982700,1.203982666015625,9.770493507385254,0.08733802288770676,-0.17108681797981262
1762798093660092700,1.2060927734375,9.784850120544434,0.10648060590028763,-0.1950150430202484
1762798093662201300,1.208201416015625,9.794421195983887,0.08255238085985184,-0.18544375896453857
1762798093664308500,1.21030859375,9.799206733703613,0.10169496387243271,-0.18544375896453857
1762798093666409000,1.212408935546875,9.81356430053711,0.09212367236614227,-0.1902294009923935
1762798093668511000,1.214510986328125,9.808777809143066,0.09690931439399719,-0.1902294009923935
1762798093670634200,1.21663427734375,9.80399227142334,0.09690931439399719,-0.18065811693668365
1762798093672729000,1.21872900390625,9.78963565826416,0.08733802288770676,-0.18544375896453857
1762798093674856000,1.22085595703125,9.808777809143066,0.09690931439399719,-0.20458634197711945
1762798093676960500,1.22296044921875,9.78963565826416,0.08733802288770676,-0.1950150430202484
1762798093679074000,1.225073974609375,9.799206733703613,0.09690931439399719,-0.1950150430202484
1762798093681174300,1.22717431640625,9.799206733703613,0.08733802288770676,-0.1950150430202484
1762798093683270400,1.2292705078125,9.799206733703613,0.08733802288770676,-0.17587246000766754
1762798093685395500,1.2313955078125,9.818349838256836,0.09272187948226929,-0.18065811693668365
1762798093687503400,1.23350341796875,9.80399227142334,0.09212367236614227,-0.1902294009923935
1762798093689616600,1.23561669921875,9.80399227142334,0.09690931439399719,-0.1663011759519577
1762798093691720400,1.237720458984375,9.80399227142334,0.09690931439399719,-0.18065811693668365
1762798093693830700,1.23983056640625,9.80399227142334,0.08733802288770676,-0.1950150430202484
1762798093695938600,1.2419384765625,9.80399227142334,0.11126625537872314,-0.19980068504810333
1762798093698045200,1.244045166015625,9.808777809143066,0.09212367236614227,-0.19980068504810333
1762798093700146400,1.246146484375,9.794421195983887,0.10169496387243271,-0.18065811693668365
1762798093702234000,1.248234130859375,9.799206733703613,0.09212367236614227,-0.1950150430202484
1762798093704360400,1.2503603515625,9.77527904510498,0.11126625537872314,-0.1902294009923935
1762798093706481700,1.252481689453125,9.799206733703613,0.10648060590028763,-0.1950150430202484
1762798093708596000,1.254595947265625,9.784850120544434,0.10169496387243271,-0.18065811693668365
1762798093710701800,1.256701904296875,9.808777809143066,0.09212367236614227,-0.18544375896453857
1762798093712807700,1.2588076171875,9.804591178894043,0.06819544732570648,-0.18544375896453857
1762798093714917000,1.260917236328125,9.823135375976562,0.10648060590028763,-0.18544375896453857
1762798093717024000,1.26302392578125,9.827920913696289,0.08315058797597885,-0.1663011759519577
1762798093719133200,1.26513330078125,9.799206733703613,0.09690931439399719,-0.17108681797981262
1762798093721240300,1.267240234375,9.794421195983887,0.09212367236614227,-0.18544375896453857
1762798093723350000,1.26935009765625,9.827920913696289,0.0975075215101242,-0.17108681797981262
1762798093725458000,1.2714580078125,9.80399227142334,0.09212367236614227,-0.17587246000766754
1762798093727563800,1.273563720703125,9.77527904510498,0.09690931439399719,-0.1950150430202484
1762798093729652000,1.27565185546875,9.799206733703613,0.11126625537872314,-0.18544375896453857
1762798093731753200,1.277753173828125,9.827920913696289,0.10169496387243271,-0.17587246000766754
1762798093733889800,1.279889892578125,9.780064582824707,0.09212367236614227,-0.19980068504810333
1762798093735993900,1.281993896484375,9.765707015991211,0.10169496387243271,-0.1950150430202484
1762798093738117400,1.284117431640625,9.818349838256836,0.08733802288770676,-0.18544375896453857
1762798093740219100,1.28621923828125,9.80399227142334,0.10648060590028763,-0.19980068504810333
1762798093742329900,1.288329833984375,9.799206733703613,0.10169496387243271,-0.1902294009923935
1762798093744436000,1.29043603515625,9.818349838256836,0.08733802288770676,-0.1902294009923935
1762798093746539300,1.292539306640625,9.799206733703613,0.08733802288770676,-0.17108681797981262
1762798093748637000,1.294636962890625,9.799206733703613,0.08733802288770676,-0.1902294009923935
1762798093750761000,1.296760986328125,9.78963565826416,0.09212367236614227,-0.18544375896453857
1762798093752871000,1.298870849609375,9.78963565826416,0.08733802288770676,-0.17108681797981262
1762798093754982000,1.30098193359375,9.80937671661377,0.07776673883199692,-0.17587246000766754
1762798093757085700,1.303085693359375,9.780064582824707,0.08733802288770676,-0.1663011759519577
1762798093759193000,1.305193115234375,9.780064582824707,0.09690931439399719,-0.18065811693668365
1762798093761303000,1.307302978515625,9.799206733703613,0.08733802288770676,-0.17108681797981262
1762798093763408400,1.309408447265625,9.794421195983887,0.11126625537872314,-0.17587246000766754
1762798093765502000,1.311501953125,9.794421195983887,0.10169496387243271,-0.17587246000766754
1762798093767609300,1.313609375,9.818349838256836,0.09690931439399719,-0.17587246000766754
1762798093769718500,1.315718505859375,9.80399227142334,0.09212367236614227,-0.18065811693668365
1762798093771834600,1.317834716796875,9.78963565826416,0.08733802288770676,-0.17587246000766754
1762798093773961000,1.3199609375,9.80399227142334,0.11605189740657806,-0.1663011759519577
1762798093776068400,1.322068359375,9.808777809143066,0.09690931439399719,-0.19980068504810333
1762798093778177800,1.324177734375,9.784850120544434,0.09690931439399719,-0.17108681797981262
1762798093780282600,1.32628271484375,9.78963565826416,0.09690931439399719,-0.17587246000766754
1762798093782391800,1.328391845703125,9.78963565826416,0.09690931439399719,-0.18065811693668365
1762798093784498400,1.33049853515625,9.814162254333496,0.06819544732570648,-0.17587246000766754
1762798093786606800,1.33260693359375,9.78963565826416,0.08733802288770676,-0.1902294009923935
1762798093788715500,1.334715576171875,9.808777809143066,0.08733802288770676,-0.18065811693668365
1762798093790825200,1.3368251953125,9.808777809143066,0.10169496387243271,-0.1902294009923935
1762798093792933400,1.338933349609375,9.808777809143066,0.09212367236614227,-0.1902294009923935
1762798093795042800,1.341042724609375,9.799206733703613,0.08733802288770676,-0.18544375896453857
1762798093797151200,1.343151123046875,9.818947792053223,0.07836493849754333,-0.18065811693668365
1762798093799259400,1.34525927734375,9.808777809143066,0.09212367236614227,-0.19980068504810333
1762798093801364000,1.347364013671875,9.799206733703613,0.09212367236614227,-0.1950150430202484
1762798093803458600,1.34945849609375,9.78963565826416,0.11126625537872314,-0.1950150430202484
1762798093805563600,1.351563720703125,9.799206733703613,0.10169496387243271,-0.18544375896453857
1762798093807677700,1.353677734375,9.784850120544434,0.10648060590028763,-0.19980068504810333
1762798093809805000,1.35580517578125,9.799206733703613,0.10169496387243271,-0.1950150430202484
1762798093811915500,1.35791552734375,9.78963565826416,0.10169496387243271,-0.18544375896453857
1762798093814024000,1.36002392578125,9.832706451416016,0.09272187948226929,-0.18065811693668365
1762798093816128300,1.362128173828125,9.808777809143066,0.10169496387243271,-0.17587246000766754
1762798093818233900,1.36423388671875,9.80399227142334,0.09690931439399719,-0.18544375896453857
1762798093820333600,1.36633349609375,9.804591178894043,0.0729810893535614,-0.18544375896453857
1762798093822440000,1.36843994140625,9.808777809143066,0.08255238085985184,-0.17587246000766754
1762798093824546000,1.370546142578125,9.80399227142334,0.11126625537872314,-0.18544375896453857
1762798093826655500,1.372655517578125,9.794421195983887,0.10169496387243271,-0.18065811693668365
1762798093828780000,1.374780029296875,9.794421195983887,0.09690931439399719,-0.17587246000766754
1762798093830888700,1.376888671875,9.80399227142334,0.08733802288770676,-0.16151553392410278
1762798093832999000,1.3789990234375,9.80399227142334,0.10648060590028763,-0.18065811693668365
1762798093835103500,1.381103515625,9.784850120544434,0.08733802288770676,-0.1902294009923935
1762798093837214500,1.38321435546875,9.794421195983887,0.08733802288770676,-0.17587246000766754
1762798093839322600,1.385322509765625,9.794421195983887,0.09212367236614227,-0.17108681797981262
1762798093841431800,1.387431884765625,9.799206733703613,0.10169496387243271,-0.18065811693668365
1762798093843539200,1.389539306640625,9.80399227142334,0.11126625537872314,-0.18544375896453857
1762798093845649000,1.39164892578125,9.81356430053711,0.10169496387243271,-0.17587246000766754
1762798093847758000,1.393758056640625,9.794421195983887,0.08733802288770676,-0.17108681797981262
1762798093849867000,1.395866943359375,9.780064582824707,0.09212367236614227,-0.1902294009923935
1762798093851973600,1.3979736328125,9.799206733703613,0.08733802288770676,-0.17108681797981262
1762798093854082300,1.400082275390625,9.7998046875,0.07776673883199692,-0.1902294009923935
1762798093856190200,1.402190185546875,9.80937671661377,0.08255238085985184,-0.17108681797981262
1762798093858300000,1.4042998046875,9.78963565826416,0.09690931439399719,-0.18065811693668365
1762798093860409900,1.406409912109375,9.790233612060547,0.0729810893535614,-0.18544375896453857
1762798093862526000,1.40852587890625,9.78963565826416,0.08733802288770676,-0.1902294009923935
1762798093864621300,1.410621337890625,9.823135375976562,0.09690931439399719,-0.1950150430202484
1762798093866719700,1.4127197265625,9.818349838256836,0.10648060590028763,-0.17108681797981262
1762798093868847000,1.41484716796875,9.799206733703613,0.11126625537872314,-0.18065811693668365
1762798093870951700,1.41695166015625,9.808777809143066,0.09690931439399719,-0.18544375896453857
1762798093873064000,1.41906396484375,9.80399227142334,0.10648060590028763,-0.17587246000766754
1762798093875167200,1.421167236328125,9.78963565826416,0.12083754688501358,-0.1902294009923935
1762798093877276700,1.423276611328125,9.808777809143066,0.08733802288770676,-0.19980068504810333
1762798093879386400,1.425386474609375,9.808777809143066,0.09690931439399719,-0.18544375896453857
1762798093881495000,1.4274951171875,9.808777809143066,0.09212367236614227,-0.1950150430202484
1762798093883603500,1.429603515625,9.794421195983887,0.12083754688501358,-0.18544375896453857
1762798093885710800,1.4317109375,9.78963565826416,0.08733802288770676,-0.18544375896453857
1762798093887818000,1.43381787109375,9.799206733703613,0.08733802288770676,-0.1950150430202484
1762798093889926100,1.435926025390625,9.827920913696289,0.08255238085985184,-0.18544375896453857
1762798093892035300,1.438035400390625,9.81356430053711,0.09212367236614227,-0.17108681797981262
1762798093894144300,1.440144287109375,9.794421195983887,0.09212367236614227,-0.17108681797981262
1762798093896255700,1.442255859375,9.7998046875,0.08255238085985184,-0.1902294009923935
1762798093898359800,1.44435986328125,9.794421195983887,0.11126625537872314,-0.1902294009923935
1762798093900451800,1.446451904296875,9.794421195983887,0.09690931439399719,-0.18544375896453857
1762798093902562800,1.448562744140625,9.780064582824707,0.09690931439399719,-0.19980068504810333
1762798093904689000,1.45068896484375,9.799206733703613,0.09690931439399719,-0.1950150430202484
1762798093906801400,1.452801513671875,9.78963565826416,0.10648060590028763,-0.17587246000766754
1762798093908910600,1.45491064453125,9.808777809143066,0.11605189740657806,-0.1950150430202484
1762798093911014100,1.45701416015625,9.81356430053711,0.09212367236614227,-0.20458634197711945
1762798093913123600,1.45912353515625,9.808777809143066,0.09212367236614227,-0.18544375896453857
1762798093915228700,1.461228759765625,9.799206733703613,0.09212367236614227,-0.17587246000766754
1762798093917325300,1.4633251953125,9.799206733703613,0.08733802288770676,-0.17587246000766754
1762798093919449000,1.465448974609375,9.784850120544434,0.10169496387243271,-0.17108681797981262
1762798093921557500,1.4675576171875,9.808777809143066,0.08733802288770676,-0.18544375896453857
1762798093923669500,1.46966943359375,9.799206733703613,0.09212367236614227,-0.18065811693668365
1762798093925774800,1.47177490234375,9.78963565826416,0.09212367236614227,-0.18544375896453857
1762798093927882800,1.4738828125,9.799206733703613,0.09212367236614227,-0.17587246000766754
1762798093929992700,1.47599267578125,9.80399227142334,0.10648060590028763,-0.18065811693668365
1762798093932101000,1.47810107421875,9.81356430053711,0.10169496387243271,-0.18065811693668365
1762798093934205200,1.480205078125,9.80399227142334,0.09212367236614227,-0.19980068504810333
1762798093936296700,1.482296630859375,9.78963565826416,0.10169496387243271,-0.18544375896453857
1762798093938409700,1.48440966796875,9.78963565826416,0.10648060590028763,-0.1950150430202484
1762798093940533000,1.486532958984375,9.794421195983887,0.10648060590028763,-0.1902294009923935
1762798093942648000,1.48864794921875,9.78963565826416,0.09212367236614227,-0.18544375896453857
1762798093944752600,1.490752685546875,9.78963565826416,0.10648060590028763,-0.20458634197711945
1762798093946849000,1.49284912109375,9.81356430053711,0.08733802288770676,-0.18544375896453857
1762798093948969700,1.4949697265625,9.799206733703613,0.10169496387243271,-0.1902294009923935
1762798093951078100,1.497078125,9.81356430053711,0.08733802288770676,-0.19980068504810333
1762798093953189600,1.499189697265625,9.7998046875,0.08255238085985184,-0.17587246000766754
1762798093955294700,1.501294677734375,9.795019149780273,0.08255238085985184,-0.17587246000766754
1762798093957401000,1.503401123046875,9.794421195983887,0.09212367236614227,-0.1663011759519577
1762798093959510300,1.50551025390625,9.799206733703613,0.09690931439399719,-0.16151553392410278
1762798093961614600,1.507614501953125,9.80399227142334,0.08733802288770676,-0.17587246000766754
1762798093963707400,1.509707275390625,9.780064582824707,0.09212367236614227,-0.17108681797981262
1762798093965809000,1.511808837890625,9.808777809143066,0.09690931439399719,-0.17587246000766754
1762798093967930600,1.5139306640625,9.799206733703613,0.09212367236614227,-0.17587246000766754
1762798093970043100,1.516043212890625,9.784850120544434,0.10169496387243271,-0.1950150430202484
1762798093972160000,1.518159912109375,9.799206733703613,0.08733802288770676,-0.17587246000766754
1762798093974258200,1.520258056640625,9.80399227142334,0.11126625537872314,-0.16151553392410278
1762798093976367600,1.52236767578125,9.794421195983887,0.10169496387243271,-0.18065811693668365
1762798093978476000,1.52447607421875,9.799206733703613,0.11126625537872314,-0.18544375896453857
1762798093980594700,1.5265947265625,9.804591178894043,0.08255238085985184,-0.1663011759519577
1762798093982693600,1.528693603515625,9.80399227142334,0.10648060590028763,-0.18065811693668365
1762798093984801300,1.53080126953125,9.794421195983887,0.10648060590028763,-0.18544375896453857
1762798093986900000,1.53289990234375,9.784850120544434,0.10169496387243271,-0.1902294009923935
1762798093989019000,1.535018798828125,9.799206733703613,0.08733802288770676,-0.1902294009923935
1762798093991126500,1.53712646484375,9.780064582824707,0.08733802288770676,-0.18544375896453857
1762798093993238300,1.53923828125,9.808777809143066,0.10648060590028763,-0.19980068504810333
1762798093995344100,1.54134423828125,9.81356430053711,0.09212367236614227,-0.1902294009923935
1762798093997453800,1.543453857421875,9.80399227142334,0.09690931439399719,-0.18544375896453857
1762798093999559400,1.545559326171875,9.780064582824707,0.09690931439399719,-0.18544375896453857
1762798094001660200,1.54766015625,9.80399227142334,0.08255238085985184,-0.19980068504810333
1762798094003778300,1.5497783203125,9.794421195983887,0.11126625537872314,-0.20937198400497437
1762798094005887700,1.5518876953125,9.784850120544434,0.10648060590028763,-0.1950150430202484
1762798094007998200,1.553998291015625,9.794421195983887,0.09690931439399719,-0.18544375896453857
1762798094010105000,1.55610498046875,9.827920913696289,0.08733802288770676,-0.19980068504810333
1762798094012212700,1.558212646484375,9.784850120544434,0.10169496387243271,-0.19980068504810333
1762798094014318000,1.560318115234375,9.794421195983887,0.10169496387243271,-0.21415762603282928
1762798094016413000,1.562412841796875,9.818349838256836,0.09212367236614227,-0.18544375896453857
1762798094018535000,1.564534912109375,9.81356430053711,0.09212367236614227,-0.1950150430202484
1762798094020634000,1.566634033203125,9.794421195983887,0.09690931439399719,-0.19980068504810333
1762798094022760700,1.5687607421875,9.81356430053711,0.10648060590028763,-0.17587246000766754
1762798094024864800,1.57086474609375,9.78963565826416,0.09212367236614227,-0.17108681797981262
1762798094026977000,1.57297705078125,9.80399227142334,0.09212367236614227,-0.18065811693668365
1762798094029081300,1.575081298828125,9.78963565826416,0.09212367236614227,-0.17108681797981262
1762798094031191300,1.57719140625,9.78963565826416,0.10169496387243271,-0.18065811693668365
1762798094033298200,1.579298095703125,9.780662536621094,0.08255238085985184,-0.17587246000766754
1762798094035402000,1.581402099609375,9.780064582824707,0.08733802288770676,-0.18065811693668365
1762798094037516000,1.58351611328125,9.78963565826416,0.10169496387243271,-0.18065811693668365
1762798094039625200,1.585625244140625,9.80399227142334,0.09690931439399719,-0.18065811693668365
1762798094041731300,1.5877314453125,9.818349838256836,0.10169496387243271,-0.18065811693668365
1762798094043829800,1.589829833984375,9.80399227142334,0.10648060590028763,-0.18065811693668365
1762798094045950700,1.59195068359375,9.794421195983887,0.09212367236614227,-0.1902294009923935
1762798094048060200,1.59406005859375,9.823135375976562,0.10169496387243271,-0.17587246000766754
1762798094050169300,1.59616943359375,9.80399227142334,0.11126625537872314,-0.1663011759519577
1762798094052264000,1.598263916015625,9.814162254333496,0.08255238085985184,-0.17587246000766754
1762798094054371800,1.600371826171875,9.794421195983887,0.10169496387243271,-0.17587246000766754
1762798094056492500,1.602492431640625,9.78963565826416,0.10169496387243271,-0.17108681797981262
1762798094058596900,1.604596923828125,9.799206733703613,0.10169496387243271,-0.18065811693668365
1762798094060714500,1.606714599609375,9.808777809143066,0.09212367236614227,-0.1902294009923935
1762798094062818800,1.60881884765625,9.794421195983887,0.09690931439399719,-0.1950150430202484
1762798094064930800,1.610930908203125,9.780064582824707,0.08733802288770676,-0.18065811693668365
1762798094067037400,1.613037353515625,9.80399227142334,0.10169496387243271,-0.18544375896453857
1762798094069145900,1.615145751953125,9.794421195983887,0.09212367236614227,-0.1902294009923935
1762798094071253200,1.617253173828125,9.794421195983887,0.09212367236614227,-0.18065811693668365
1762798094073362400,1.619362548828125,9.799206733703613,0.09212367236614227,-0.1902294009923935
1762798094075467800,1.6214677734375,9.799206733703613,0.10648060590028763,-0.18065811693668365
1762798094077564700,1.623564697265625,9.799206733703613,0.09690931439399719,-0.17587246000766754
1762798094079672300,1.62567236328125,9.808777809143066,0.10169496387243271,-0.18065811693668365
1762798094081788200,1.6277880859375,9.780064582824707,0.10169496387243271,-0.1950150430202484
1762798094083909000,1.6299091796875,9.808777809143066,0.08733802288770676,-0.1902294009923935
1762798094086017800,1.632017822265625,9.799206733703613,0.08733802288770676,-0.1902294009923935
1762798094088124400,1.63412451171875,9.780064582824707,0.10648060590028763,-0.19980068504810333
1762798094090231300,1.636231201171875,9.794421195983887,0.10648060590028763,-0.18544375896453857
1762798094092339200,1.638339111328125,9.808777809143066,0.10648060590028763,-0.18544375896453857
1762798094094449400,1.640449462890625,9.808777809143066,0.10169496387243271,-0.1950150430202484
1762798094096558800,1.642558837890625,9.80399227142334,0.08733802288770676,-0.17587246000766754
1762798094098666200,1.644666259765625,9.808777809143066,0.08733802288770676,-0.18065811693668365
1762798094100774700,1.646774658203125,9.799206733703613,0.11126625537872314,-0.1902294009923935
1762798094102882600,1.648882568359375,9.780064582824707,0.09690931439399719,-0.18544375896453857
1762798094104990700,1.65099072265625,9.795019149780273,0.08255238085985184,-0.18065811693668365
1762798094107100200,1.65310009765625,9.80399227142334,0.10648060590028763,-0.18065811693668365
1762798094109208000,1.6552080078125,9.80399227142334,0.08733802288770676,-0.18065811693668365
1762798094111317500,1.6573173828125,9.794421195983887,0.08733802288770676,-0.17587246000766754
1762798094113424100,1.659424072265625,9.818349838256836,0.08733802288770676,-0.1902294009923935
1762798094115527700,1.661527587890625,9.80399227142334,0.09212367236614227,-0.18544375896453857
1762798094117630700,1.663630615234375,9.808777809143066,0.09690931439399719,-0.18065811693668365
1762798094119740000,1.665739990234375,9.799206733703613,0.09690931439399719,-0.1902294009923935
1762798094121861000,1.667861083984375,9.80399227142334,0.09690931439399719,-0.17587246000766754
1762798094123971300,1.669971435546875,9.799206733703613,0.10648060590028763,-0.1902294009923935
1762798094126080000,1.672080078125,9.794421195983887,0.10169496387243271,-0.1950150430202484
1762798094128186000,1.67418603515625,9.818349838256836,0.08733802288770676,-0.1902294009923935
1762798094130294300,1.676294189453125,9.808777809143066,0.09212367236614227,-0.17587246000766754
1762798094132403700,1.67840380859375,9.80399227142334,0.09690931439399719,-0.18544375896453857
1762798094134512000,1.68051220703125,9.799206733703613,0.10648060590028763,-0.18065811693668365
1762798094136620500,1.68262060546875,9.784850120544434,0.09690931439399719,-0.18544375896453857
1762798094138728400,1.684728515625,9.799206733703613,0.10648060590028763,-0.17108681797981262
1762798094140837600,1.686837646484375,9.78963565826416,0.08733802288770676,-0.17587246000766754
1762798094142945500,1.688945556640625,9.78963565826416,0.09690931439399719,-0.18065811693668365
1762798094145058000,1.69105810546875,9.808777809143066,0.09690931439399719,-0.18544375896453857
1762798094147178000,1.693177978515625,9.827920913696289,0.08255238085985184,-0.19980068504810333
1762798094149287700,1.69528759765625,9.784850120544434,0.09690931439399719,-0.18065811693668365
1762798094151392500,1.697392578125,9.7998046875,0.07776673883199692,-0.18065811693668365
1762798094153483000,1.69948291015625,9.823135375976562,0.09212367236614227,-0.18065811693668365
1762798094155591200,1.701591064453125,9.80399227142334,0.09212367236614227,-0.18544375896453857
1762798094157704200,1.7037041015625,9.808777809143066,0.09690931439399719,-0.18544375896453857
1762798094159832600,1.70583251953125,9.784850120544434,0.09690931439399719,-0.1902294009923935
1762798094161941500,1.70794140625,9.80399227142334,0.09690931439399719,-0.18065811693668365
1762798094164049200,1.710049072265625,9.78963565826416,0.10169496387243271,-0.17108681797981262
1762798094166154800,1.71215478515625,9.784850120544434,0.10648060590028763,-0.1902294009923935
1762798094168263700,1.714263671875,9.790233612060547,0.07776673883199692,-0.18544375896453857
1762798094170372000,1.7163720703125,9.80399227142334,0.09212367236614227,-0.1950150430202484
1762798094172479500,1.7184794921875,9.799206733703613,0.09690931439399719,-0.18065811693668365
1762798094174588700,1.720588623046875,9.808777809143066,0.09212367236614227,-0.17587246000766754
1762798094176692700,1.722692626953125,9.794421195983887,0.09212367236614227,-0.17587246000766754
1762798094178790400,1.724790283203125,9.770493507385254,0.09212367236614227,-0.18065811693668365
1762798094180914200,1.7269140625,9.784850120544434,0.09690931439399719,-0.17587246000766754
1762798094183023600,1.729023681640625,9.808777809143066,0.09212367236614227,-0.17587246000766754
1762798094185136600,1.73113671875,9.80399227142334,0.10648060590028763,-0.18065811693668365
1762798094187238000,1.73323779296875,9.794421195983887,0.09212367236614227,-0.1663011759519577
1762798094189334000,1.735333984375,9.78963565826416,0.10648060590028763,-0.1902294009923935
1762798094191457500,1.73745751953125,9.818349838256836,0.09212367236614227,-0.1902294009923935
1762798094193565200,1.739565185546875,9.794421195983887,0.10169496387243271,-0.18065811693668365
1762798094195674600,1.741674560546875,9.799206733703613,0.10169496387243271,-0.18544375896453857
1762798094197762600,1.743762451171875,9.808777809143066,0.08733802288770676,-0.1902294009923935
1762798094199876000,1.7458759765625,9.799206733703613,0.09690931439399719,-0.1902294009923935
1762798094202001200,1.748001220703125,9.784850120544434,0.09212367236614227,-0.17587246000766754
1762798094204113400,1.750113525390625,9.799206733703613,0.10648060590028763,-0.17587246000766754
1762798094206220800,1.752220703125,9.81356430053711,0.08255238085985184,-0.1950150430202484
1762798094208324000,1.754323974609375,9.794421195983887,0.10648060590028763,-0.18544375896453857
1762798094210432000,1.756431884765625,9.780064582824707,0.11126625537872314,-0.1950150430202484
1762798094212537900,1.758537841796875,9.794421195983887,0.09690931439399719,-0.18544375896453857
1762798094214631000,1.760630859375,9.81356430053711,0.09690931439399719,-0.1902294009923935
1762798094216741400,1.762741455078125,9.808777809143066,0.10169496387243271,-0.1902294009923935
1762798094218851000,1.76485107421875,9.80399227142334,0.09690931439399719,-0.1902294009923935
1762798094220966100,1.766966064453125,9.81356430053711,0.10648060590028763,-0.19980068504810333
1762798094223090000,1.76908984375,9.80399227142334,0.11126625537872314,-0.1902294009923935
1762798094225198800,1.77119873046875,9.794421195983887,0.10648060590028763,-0.1902294009923935
1762798094227307300,1.773307373046875,9.808777809143066,0.11605189740657806,-0.1950150430202484
1762798094229413400,1.775413330078125,9.794421195983887,0.09212367236614227,-0.1950150430202484
1762798094231524400,1.7775244140625,9.794421195983887,0.09212367236614227,-0.18544375896453857
1762798094233630000,1.7796298828125,9.794421195983887,0.09212367236614227,-0.18065811693668365
1762798094235738600,1.781738525390625,9.765707015991211,0.09212367236614227,-0.1902294009923935
1762798094237845800,1.783845703125,9.808777809143066,0.08255238085985184,-0.18544375896453857
1762798094239954700,1.78595458984375,9.78963565826416,0.11126625537872314,-0.18544375896453857
1762798094242063600,1.788063720703125,9.784850120544434,0.09690931439399719,-0.1902294009923935
1762798094244172000,1.790172119140625,9.808777809143066,0.08255238085985184,-0.1950150430202484
1762798094246281200,1.79228125,9.794421195983887,0.08733802288770676,-0.1950150430202484
1762798094248382200,1.79438232421875,9.794421195983887,0.10648060590028763,-0.18544375896453857
1762798094250466800,1.796466796875,9.799206733703613,0.10648060590028763,-0.18544375896453857
1762798094252587000,1.7985869140625,9.795019149780273,0.07776673883199692,-0.17587246000766754
1762798094254698000,1.800697998046875,9.780064582824707,0.08733802288770676,-0.18544375896453857
1762798094256813600,1.8028134765625,9.799206733703613,0.09212367236614227,-0.18544375896453857
1762798094258936600,1.8049365234375,9.799206733703613,0.11126625537872314,-0.18544375896453857
1762798094261043700,1.807043701171875,9.80399227142334,0.08255238085985184,-0.18065811693668365
1762798094263154200,1.809154296875,9.78963565826416,0.10169496387243271,-0.18544375896453857
1762798094265253600,1.811253662109375,9.808777809143066,0.09212367236614227,-0.17587246000766754
1762798094267350800,1.813350830078125,9.78963565826416,0.09212367236614227,-0.1902294009923935
1762798094269476400,1.815476318359375,9.799206733703613,0.10169496387243271,-0.18544375896453857
1762798094271584300,1.817584228515625,9.799206733703613,0.08733802288770676,-0.17108681797981262
1762798094273696300,1.8196962890625,9.818349838256836,0.08733802288770676,-0.18065811693668365
1762798094275800800,1.82180078125,9.818349838256836,0.09212367236614227,-0.17587246000766754
1762798094277907200,1.8239072265625,9.814162254333496,0.07776673883199692,-0.18065811693668365
1762798094280016400,1.826016357421875,9.808777809143066,0.09212367236614227,-0.18065811693668365
1762798094282124500,1.82812451171875,9.80399227142334,0.09212367236614227,-0.18065811693668365
1762798094284234000,1.83023388671875,9.808777809143066,0.09212367236614227,-0.18544375896453857
1762798094286342100,1.832342041015625,9.80399227142334,0.09212367236614227,-0.1902294009923935
1762798094288449300,1.83444921875,9.81356430053711,0.09212367236614227,-0.18544375896453857
1762798094290537000,1.836536865234375,9.794421195983887,0.09690931439399719,-0.18544375896453857
1762798094292636400,1.838636474609375,9.808777809143066,0.10648060590028763,-0.1950150430202484
1762798094294761500,1.840761474609375,9.784850120544434,0.10648060590028763,-0.18544375896453857
1762798094296892000,1.842891845703125,9.794421195983887,0.11126625537872314,-0.1902294009923935
1762798094299002600,1.845002685546875,9.799206733703613,0.09212367236614227,-0.1902294009923935
1762798094301109000,1.84710888671875,9.81356430053711,0.08733802288770676,-0.18544375896453857
1762798094303213300,1.84921337890625,9.7998046875,0.07776673883199692,-0.18544375896453857
1762798094305321700,1.85132177734375,9.784850120544434,0.09212367236614227,-0.18065811693668365
1762798094307429600,1.8534296875,9.80399227142334,0.10648060590028763,-0.17587246000766754
1762798094309538600,1.85553857421875,9.818349838256836,0.08793623000383377,-0.16151553392410278
1762798094311646700,1.857646728515625,9.799206733703613,0.08733802288770676,-0.18544375896453857
1762798094313756200,1.859756103515625,9.81356430053711,0.10648060590028763,-0.18544375896453857
1762798094315863800,1.86186376953125,9.78963565826416,0.11126625537872314,-0.18065811693668365
1762798094317973500,1.863973388671875,9.784850120544434,0.09212367236614227,-0.1902294009923935
1762798094320082700,1.866082763671875,9.794421195983887,0.09212367236614227,-0.18065811693668365
1762798094322191600,1.868191650390625,9.81356430053711,0.09690931439399719,-0.1902294009923935
1762798094324298800,1.870298828125,9.80399227142334,0.09212367236614227,-0.1902294009923935
1762798094326408000,1.872407958984375,9.784850120544434,0.10169496387243271,-0.18544375896453857
1762798094328511200,1.87451123046875,9.780064582824707,0.10648060590028763,-0.1950150430202484
1762798094330608400,1.8766083984375,9.780064582824707,0.11126625537872314,-0.18065811693668365
1762798094332732700,1.878732666015625,9.799206733703613,0.09690931439399719,-0.1902294009923935
1762798094334840300,1.88084033203125,9.78963565826416,0.09690931439399719,-0.18065811693668365
1762798094336943000,1.882943115234375,9.794421195983887,0.08733802288770676,-0.18544375896453857
1762798094339044000,1.885044189453125,9.790233612060547,0.08255238085985184,-0.17587246000766754
1762798094341165000,1.8871650390625,9.78963565826416,0.09212367236614227,-0.18544375896453857
1762798094343276000,1.889276123046875,9.808777809143066,0.08733802288770676,-0.1902294009923935
1762798094345393000,1.891392822265625,9.78963565826416,0.08255238085985184,-0.18544375896453857
1762798094347522000,1.89352197265625,9.80399227142334,0.08733802288770676,-0.18544375896453857
1762798094349604900,1.89560498046875,9.80399227142334,0.10169496387243271,-0.17108681797981262
1762798094351697000,1.89769677734375,9.794421195983887,0.08255238085985184,-0.20458634197711945
1762798094353813500,1.8998134765625,9.795019149780273,0.0729810893535614,-0.1950150430202484
1762798094355926500,1.901926513671875,9.81356430053711,0.10169496387243271,-0.18544375896453857
1762798094358039800,1.904039794921875,9.784850120544434,0.10169496387243271,-0.1950150430202484
1762798094360145000,1.906144775390625,9.784850120544434,0.09690931439399719,-0.20458634197711945
1762798094362249000,1.9082490234375,9.794421195983887,0.09690931439399719,-0.18544375896453857
1762798094364347000,1.910346923828125,9.808777809143066,0.11605189740657806,-0.1902294009923935
1762798094366471400,1.912471435546875,9.78963565826416,0.10648060590028763,-0.18544375896453857
1762798094368580400,1.914580322265625,9.78963565826416,0.10169496387243271,-0.1902294009923935
1762798094370692400,1.9166923828125,9.794421195983887,0.08733802288770676,-0.18065811693668365
1762798094372796400,1.91879638671875,9.780064582824707,0.09690931439399719,-0.17587246000766754
1762798094374904300,1.920904296875,9.780064582824707,0.09212367236614227,-0.18065811693668365
1762798094377014000,1.923013916015625,9.818349838256836,0.09212367236614227,-0.1902294009923935
1762798094379122000,1.925121826171875,9.7998046875,0.07776673883199692,-0.18065811693668365
1762798094381229300,1.927229248046875,9.80399227142334,0.10648060590028763,-0.17587246000766754
1762798094383330000,1.929330078125,9.794421195983887,0.11126625537872314,-0.18065811693668365
1762798094385437200,1.931437255859375,9.799206733703613,0.08255238085985184,-0.18544375896453857
1762798094387532500,1.933532470703125,9.81356430053711,0.09690931439399719,-0.1902294009923935
1762798094389632000,1.935632080078125,9.808777809143066,0.11605189740657806,-0.18544375896453857
1762798094391759600,1.937759521484375,9.78963565826416,0.08733802288770676,-0.1902294009923935
1762798094393886700,1.93988671875,9.784850120544434,0.10648060590028763,-0.18065811693668365
1762798094395997700,1.941997802734375,9.78963565826416,0.09212367236614227,-0.1950150430202484
1762798094398101500,1.9441015625,9.794421195983887,0.09212367236614227,-0.1902294009923935
1762798094400205300,1.946205322265625,9.80399227142334,0.09212367236614227,-0.18065811693668365
1762798094402311700,1.948311767578125,9.799206733703613,0.09690931439399719,-0.1950150430202484
1762798094404409900,1.950409912109375,9.799206733703613,0.10169496387243271,-0.1902294009923935
1762798094406532900,1.952532958984375,9.784850120544434,0.11126625537872314,-0.18065811693668365
1762798094408642300,1.954642333984375,9.78963565826416,0.09212367236614227,-0.18065811693668365
1762798094410755000,1.956755126953125,9.814162254333496,0.0729810893535614,-0.1950150430202484
1762798094412859400,1.958859375,9.77527904510498,0.09212367236614227,-0.1902294009923935
1762798094414968600,1.960968505859375,9.80399227142334,0.09212367236614227,-0.18065811693668365
1762798094417076200,1.963076171875,9.78963565826416,0.10169496387243271,-0.1902294009923935
1762798094419178000,1.965177978515625,9.823135375976562,0.12083754688501358,-0.18065811693668365
1762798094421259300,1.96725927734375,9.861420631408691,0.07836493849754333,-0.18065811693668365
1762798094423389700,1.9693896484375,9.723235130310059,0.0771685317158699,-0.1950150430202484
1762798094425519600,1.97151953125,9.702896118164062,0.13938191533088684,-0.21415762603282928
1762798094427599400,1.973599365234375,9.914660453796387,0.07417750358581543,-0.15672987699508667
1762798094429703700,1.97570361328125,9.833304405212402,0.07357929646968842,-0.1663011759519577
1762798094431824600,1.97782470703125,9.751350402832031,0.12023933976888657,-0.18544375896453857
1762798094433929200,1.97992919921875,9.847661972045898,0.08315058797597885,-0.14715859293937683
1762798094436030500,1.982030517578125,9.78544807434082,0.07776673883199692,-0.1663011759519577
1762798094438150400,1.984150390625,9.746564865112305,0.1010967567563057,-0.20458634197711945
1762798094440276000,1.98627587890625,9.842277526855469,0.08315058797597885,-0.1902294009923935
1762798094442383600,1.988383544921875,9.827920913696289,0.08733802288770676,-0.1663011759519577
1762798094444492800,1.990492919921875,9.770493507385254,0.08733802288770676,-0.1902294009923935
1762798094446596900,1.992596923828125,9.765707015991211,0.09212367236614227,-0.17587246000766754
1762798094448706000,1.9947060546875,9.808777809143066,0.09212367236614227,-0.18544375896453857
1762798094450813700,1.996813720703125,9.799206733703613,0.10169496387243271,-0.18544375896453857
1762798094452923400,1.99892333984375,9.823135375976562,0.10169496387243271,-0.20937198400497437
1762798094455032600,2.001032470703125,9.818349838256836,0.11126625537872314,-0.18544375896453857
1762798094457134600,2.003134521484375,9.808777809143066,0.10169496387243271,-0.18065811693668365
1762798094459218000,2.005218017578125,9.808777809143066,0.10648060590028763,-0.17587246000766754
1762798094461338000,2.007338134765625,9.770493507385254,0.09690931439399719,-0.20937198400497437
1762798094463437600,2.0094375,9.794421195983887,0.08733802288770676,-0.19980068504810333
1762798094465564200,2.011564208984375,9.80399227142334,0.08733802288770676,-0.18544375896453857
1762798094467663600,2.01366357421875,9.80399227142334,0.11126625537872314,-0.17587246000766754
1762798094469766100,2.01576611328125,9.808777809143066,0.08255238085985184,-0.18065811693668365
1762798094471887000,2.01788720703125,9.78544807434082,0.08255238085985184,-0.18065811693668365
1762798094473995800,2.019995849609375,9.751350402832031,0.09212367236614227,-0.18065811693668365
1762798094476106800,2.022106689453125,9.818349838256836,0.09212367236614227,-0.17108681797981262
1762798094478209000,2.024208984375,9.827920913696289,0.09690931439399719,-0.18544375896453857
1762798094480307000,2.026306884765625,9.78963565826416,0.11126625537872314,-0.18065811693668365
1762798094482428400,2.028428466796875,9.81356430053711,0.10169496387243271,-0.18065811693668365
1762798094484537600,2.03053759765625,9.862018585205078,0.0687936544418335,-0.18065811693668365
1762798094486650600,2.032650634765625,9.732208251953125,0.09631111472845078,-0.20937198400497437
1762798094488756200,2.034756103515625,9.755537986755371,0.13459627330303192,-0.20937198400497437
1762798094490864000,2.036864013671875,9.875777244567871,0.10229317098855972,-0.17108681797981262
1762798094492971800,2.0389716796875,9.794421195983887,0.09690931439399719,-0.18544375896453857
1762798094495081000,2.0410810546875,9.765707015991211,0.10169496387243271,-0.18544375896453857
1762798094497187600,2.0431875,9.828518867492676,0.07357929646968842,-0.1663011759519577
1762798094499293000,2.04529296875,9.770493507385254,0.09212367236614227,-0.17108681797981262
1762798094501406500,2.047406494140625,9.746564865112305,0.1010967567563057,-0.19980068504810333
1762798094503516000,2.049515869140625,9.837491989135742,0.08793623000383377,-0.18544375896453857
1762798094505625900,2.0516259765625,9.832706451416016,0.08793623000383377,-0.17587246000766754
1762798094507732700,2.053732666015625,9.784850120544434,0.09212367236614227,-0.18065811693668365
1762798094509840600,2.055840576171875,9.794421195983887,0.09690931439399719,-0.18544375896453857
1762798094511949800,2.05794970703125,9.80399227142334,0.09212367236614227,-0.17587246000766754
1762798094514054400,2.060054443359375,9.799206733703613,0.08733802288770676,-0.17587246000766754
1762798094516154400,2.062154296875,9.794421195983887,0.10169496387243271,-0.1950150430202484
1762798094518274800,2.06427490234375,9.799206733703613,0.10169496387243271,-0.1950150430202484
1762798094520385000,2.066385009765625,9.80399227142334,0.08733802288770676,-0.18065811693668365
1762798094522496800,2.068496826171875,9.77527904510498,0.12083754688501358,-0.18065811693668365
1762798094524602400,2.070602294921875,9.784252166748047,0.13519448041915894,-0.1902294009923935
1762798094526708000,2.0727080078125,9.866804122924805,0.04486542567610741,-0.18065811693668365
1762798094528817000,2.07481689453125,9.688538551330566,0.14895321428775787,-0.1902294009923935
1762798094530925000,2.076925048828125,9.80399227142334,0.11605189740657806,-0.1902294009923935
1762798094533036300,2.079036376953125,9.905089378356934,0.07357929646968842,-0.16151553392410278
1762798094535144200,2.081144287109375,9.799206733703613,0.10169496387243271,-0.17587246000766754
1762798094537254000,2.08325390625,9.746564865112305,0.09631111472845078,-0.17587246000766754
1762798094539362300,2.0853623046875,9.842875480651855,0.06400800496339798,-0.16151553392410278
1762798094541467100,2.087467041015625,9.790233612060547,0.07776673883199692,-0.18065811693668365
1762798094543565300,2.0895654296875,9.760921478271484,0.1010967567563057,-0.19980068504810333
1762798094545687800,2.091687744140625,9.80937671661377,0.0729810893535614,-0.18065811693668365
1762798094547795200,2.093795166015625,9.818349838256836,0.09212367236614227,-0.1902294009923935
1762798094549907200,2.0959072265625,9.794421195983887,0.11605189740657806,-0.18065811693668365
1762798094552008700,2.0980087890625,9.808777809143066,0.09212367236614227,-0.1950150430202484
1762798094554122500,2.10012255859375,9.80399227142334,0.08255238085985184,-0.1950150430202484
1762798094556230700,2.102230712890625,9.770493507385254,0.11126625537872314,-0.20458634197711945
1762798094558340000,2.104340087890625,9.818349838256836,0.12083754688501358,-0.18065811693668365
1762798094560446700,2.10644677734375,9.842277526855469,0.11605189740657806,-0.1902294009923935
1762798094562556200,2.10855615234375,9.832706451416016,0.10169496387243271,-0.1950150430202484
1762798094564660500,2.110660400390625,9.784850120544434,0.11605189740657806,-0.18544375896453857
1762798094566760200,2.11276025390625,9.808777809143066,0.09212367236614227,-0.1902294009923935
1762798094568881200,2.114881103515625,9.804591178894043,0.06340979784727097,-0.17587246000766754
1762798094570990800,2.116990966796875,9.78963565826416,0.08733802288770676,-0.1950150430202484
1762798094573102800,2.119102783203125,9.808777809143066,0.11126625537872314,-0.1663011759519577
1762798094575208000,2.1212080078125,9.78963565826416,0.09212367236614227,-0.1663011759519577
1762798094577315600,2.123315673828125,9.77109146118164,0.0729810893535614,-0.17587246000766754
1762798094579419600,2.125419677734375,9.77109146118164,0.08255238085985184,-0.1950150430202484
1762798094581512000,2.127511962890625,9.837491989135742,0.08315058797597885,-0.18065811693668365
1762798094583642000,2.12964208984375,9.823135375976562,0.09212367236614227,-0.1950150430202484
1762798094585749800,2.131749755859375,9.784850120544434,0.10648060590028763,-0.1950150430202484
1762798094587865000,2.133864990234375,9.80399227142334,0.08733802288770676,-0.19980068504810333
1762798094589968600,2.13596875,9.823135375976562,0.12083754688501358,-0.19980068504810333
1762798094592077600,2.13807763671875,9.78963565826416,0.11605189740657806,-0.20937198400497437
1762798094594184200,2.14018408203125,9.799206733703613,0.11126625537872314,-0.1950150430202484
1762798094596288300,2.142288330078125,9.808777809143066,0.10169496387243271,-0.1950150430202484
1762798094598379000,2.14437890625,9.770493507385254,0.10648060590028763,-0.18544375896453857
1762798094600509700,2.146509765625,9.784850120544434,0.09212367236614227,-0.18065811693668365
1762798094602621200,2.14862109375,9.823135375976562,0.08255238085985184,-0.18544375896453857
1762798094604743700,2.15074365234375,9.770493507385254,0.09690931439399719,-0.17587246000766754
1762798094606837200,2.152837158203125,9.794421195983887,0.09690931439399719,-0.1663011759519577
1762798094608945400,2.1549453125,9.814162254333496,0.07776673883199692,-0.18065811693668365
1762798094611050500,2.157050537109375,9.799206733703613,0.08733802288770676,-0.18544375896453857
1762798094613162500,2.15916259765625,9.77527904510498,0.08733802288770676,-0.17108681797981262
1762798094615268900,2.161268798828125,9.80399227142334,0.09212367236614227,-0.1663011759519577
1762798094617370400,2.163370361328125,9.818349838256836,0.11126625537872314,-0.17587246000766754
1762798094619474200,2.16547412109375,9.808777809143066,0.11126625537872314,-0.1902294009923935
1762798094621597200,2.16759716796875,9.794421195983887,0.10169496387243271,-0.19980068504810333
1762798094623707000,2.169706787109375,9.808777809143066,0.09690931439399719,-0.1902294009923935
1762798094625817300,2.1718173828125,9.80399227142334,0.10169496387243271,-0.1950150430202484
1762798094627921700,2.173921630859375,9.799206733703613,0.10648060590028763,-0.19980068504810333
1762798094630031000,2.176031005859375,9.80399227142334,0.09690931439399719,-0.1950150430202484
1762798094632139000,2.178138916015625,9.784850120544434,0.10169496387243271,-0.1902294009923935
1762798094634248400,2.18024853515625,9.818349838256836,0.09690931439399719,-0.18544375896453857
1762798094636356000,2.182356201171875,9.78963565826416,0.09690931439399719,-0.18065811693668365
1762798094638466000,2.184466064453125,9.794421195983887,0.09690931439399719,-0.18544375896453857
1762798094640571400,2.1865712890625,9.794421195983887,0.08733802288770676,-0.18065811693668365
1762798094642670000,2.188670166015625,9.794421195983887,0.09212367236614227,-0.17587246000766754
1762798094644793900,2.1907939453125,9.790233612060547,0.08255238085985184,-0.18544375896453857
1762798094646916900,2.192916748046875,9.794421195983887,0.08733802288770676,-0.18544375896453857
1762798094649028000,2.195028076171875,9.80399227142334,0.10169496387243271,-0.1902294009923935
1762798094651130000,2.197130126953125,9.799206733703613,0.10169496387243271,-0.1902294009923935
1762798094653215000,2.199215087890625,9.770493507385254,0.09690931439399719,-0.1950150430202484
1762798094655316000,2.20131591796875,9.794421195983887,0.08733802288770676,-0.19980068504810333
1762798094657440000,2.20343994140625,9.794421195983887,0.09690931439399719,-0.1902294009923935
1762798094659568400,2.205568359375,9.780064582824707,0.09690931439399719,-0.1950150430202484
1762798094661678000,2.207677978515625,9.81356430053711,0.10169496387243271,-0.18544375896453857
1762798094663784200,2.2097841796875,9.808777809143066,0.11126625537872314,-0.18065811693668365
1762798094665888800,2.211888671875,9.80399227142334,0.11605189740657806,-0.18544375896453857
1762798094668000000,2.214,9.818349838256836,0.10169496387243271,-0.18065811693668365
1762798094670108000,2.21610791015625,9.784850120544434,0.09690931439399719,-0.17108681797981262
1762798094672213800,2.2182138671875,9.794421195983887,0.09690931439399719,-0.17587246000766754
1762798094674310000,2.220309814453125,9.784850120544434,0.08733802288770676,-0.1902294009923935
1762798094676434700,2.2224345703125,9.804591178894043,0.06819544732570648,-0.17587246000766754
1762798094678541800,2.224541748046875,9.80937671661377,0.08255238085985184,-0.18065811693668365
1762798094680654800,2.22665478515625,9.794421195983887,0.09690931439399719,-0.1950150430202484
1762798094682759000,2.228759033203125,9.80399227142334,0.10169496387243271,-0.17587246000766754
1762798094684864300,2.2308642578125,9.794421195983887,0.09212367236614227,-0.1902294009923935
1762798094686959400,2.23295947265625,9.80399227142334,0.09212367236614227,-0.18065811693668365
1762798094689086000,2.2350859375,9.81356430053711,0.09690931439399719,-0.17587246000766754
1762798094691194600,2.237194580078125,9.808777809143066,0.10648060590028763,-0.19980068504810333
1762798094693307000,2.239306884765625,9.808777809143066,0.09690931439399719,-0.1902294009923935
1762798094695409700,2.24140966796875,9.808777809143066,0.08733802288770676,-0.18065811693668365
1762798094697517000,2.24351708984375,9.81356430053711,0.09690931439399719,-0.1902294009923935
1762798094699627800,2.245627685546875,9.827920913696289,0.12083754688501358,-0.18065811693668365
1762798094701737000,2.247737060546875,9.780064582824707,0.08733802288770676,-0.18544375896453857
1762798094703845400,2.249845458984375,9.780064582824707,0.09690931439399719,-0.18544375896453857
1762798094705954800,2.251954833984375,9.7998046875,0.0729810893535614,-0.1902294009923935
1762798094708063200,2.254063232421875,9.814162254333496,0.07776673883199692,-0.18065811693668365
1762798094710171400,2.25617138671875,9.794421195983887,0.09212367236614227,-0.17587246000766754
1762798094712279600,2.258279541015625,9.784850120544434,0.08733802288770676,-0.18065811693668365
1762798094714385200,2.26038525390625,9.80399227142334,0.09690931439399719,-0.18065811693668365
1762798094716479000,2.26247900390625,9.799206733703613,0.08733802288770676,-0.17587246000766754
1762798094718601200,2.264601318359375,9.804591178894043,0.07776673883199692,-0.18544375896453857
1762798094720711200,2.266711181640625,9.799206733703613,0.09212367236614227,-0.18544375896453857
1762798094722825500,2.268825439453125,9.81356430053711,0.10169496387243271,-0.17108681797981262
1762798094724931800,2.270931884765625,9.808777809143066,0.10169496387243271,-0.1902294009923935
1762798094727042000,2.2730419921875,9.78963565826416,0.10648060590028763,-0.18544375896453857
1762798094729147400,2.2751474609375,9.78963565826416,0.09690931439399719,-0.18065811693668365
1762798094731253000,2.2772529296875,9.794421195983887,0.10169496387243271,-0.18065811693668365
1762798094733365200,2.279365234375,9.818349838256836,0.10648060590028763,-0.1902294009923935
1762798094735474700,2.281474609375,9.784850120544434,0.09212367236614227,-0.18544375896453857
1762798094737583600,2.28358349609375,9.80399227142334,0.08733802288770676,-0.18544375896453857
1762798094739687700,2.285687744140625,9.814162254333496,0.07776673883199692,-0.17587246000766754
1762798094741784300,2.287784423828125,9.80399227142334,0.09690931439399719,-0.18544375896453857
1762798094743909400,2.289909423828125,9.80399227142334,0.09690931439399719,-0.18065811693668365
1762798094746016800,2.292016845703125,9.799206733703613,0.10648060590028763,-0.18065811693668365
1762798094748131300,2.29413134765625,9.80399227142334,0.10648060590028763,-0.18544375896453857
1762798094750231000,2.29623095703125,9.78963565826416,0.08733802288770676,-0.18065811693668365
1762798094752308500,2.29830859375,9.80399227142334,0.08255238085985184,-0.1950150430202484
1762798094754437600,2.300437744140625,9.81356430053711,0.09690931439399719,-0.1950150430202484
1762798094756573200,2.3025732421875,9.808777809143066,0.10648060590028763,-0.18544375896453857
1762798094758677500,2.304677490234375,9.794421195983887,0.11126625537872314,-0.18065811693668365
1762798094760782300,2.3067822265625,9.784850120544434,0.10648060590028763,-0.1950150430202484
1762798094762882000,2.308882080078125,9.799206733703613,0.09212367236614227,-0.1902294009923935
1762798094765000400,2.31100048828125,9.799206733703613,0.11126625537872314,-0.17587246000766754
1762798094767130400,2.31313037109375,9.78963565826416,0.12083754688501358,-0.18065811693668365
1762798094769225200,2.31522509765625,9.780064582824707,0.09212367236614227,-0.18544375896453857
1762798094771319800,2.31731982421875,9.808777809143066,0.09690931439399719,-0.18065811693668365
1762798094773428000,2.319427978515625,9.799206733703613,0.10648060590028763,-0.16151553392410278
1762798094775553300,2.32155322265625,9.78963565826416,0.11605189740657806,-0.17108681797981262
1762798094777646300,2.323646240234375,9.80399227142334,0.08255238085985184,-0.17587246000766754
1762798094779754000,2.32575390625,9.804591178894043,0.0729810893535614,-0.18065811693668365
1762798094781858600,2.327858642578125,9.794421195983887,0.08733802288770676,-0.18065811693668365
1762798094783967200,2.32996728515625,9.81356430053711,0.08733802288770676,-0.1902294009923935
1762798094786065000,2.33206494140625,9.799206733703613,0.10169496387243271,-0.18544375896453857
1762798094788194800,2.33419482421875,9.780064582824707,0.11126625537872314,-0.1902294009923935
1762798094790312700,2.336312744140625,9.794421195983887,0.10169496387243271,-0.18544375896453857
1762798094792387800,2.338387939453125,9.823135375976562,0.10169496387243271,-0.1902294009923935
1762798094794488000,2.340488037109375,9.794421195983887,0.10648060590028763,-0.19980068504810333
1762798094796614100,2.3426142578125,9.794421195983887,0.08733802288770676,-0.18065811693668365
1762798094798736100,2.344736083984375,9.78963565826416,0.10169496387243271,-0.1902294009923935
1762798094800845800,2.346845703125,9.770493507385254,0.10169496387243271,-0.1902294009923935
1762798094802947300,2.348947265625,9.799206733703613,0.10169496387243271,-0.19980068504810333
1762798094805057300,2.351057373046875,9.80399227142334,0.09212367236614227,-0.17587246000766754
1762798094807167200,2.353167236328125,9.823135375976562,0.09212367236614227,-0.18065811693668365
1762798094809276400,2.3552763671875,9.80399227142334,0.08733802288770676,-0.1902294009923935
1762798094811379700,2.357379638671875,9.808777809143066,0.07776673883199692,-0.19980068504810333
1762798094813471000,2.359470947265625,9.818349838256836,0.08733802288770676,-0.1902294009923935
1762798094815617300,2.3616171875,9.81356430053711,0.09690931439399719,-0.18065811693668365
1762798094817690000,2.363690185546875,9.827920913696289,0.08315058797597885,-0.18544375896453857
1762798094819803600,2.3658037109375,9.808777809143066,0.08733802288770676,-0.1950150430202484
1762798094821926000,2.36792578125,9.78963565826416,0.08733802288770676,-0.18065811693668365
1762798094824035600,2.37003564453125,9.780064582824707,0.09212367236614227,-0.17108681797981262
1762798094826131200,2.372131103515625,9.78963565826416,0.09690931439399719,-0.1902294009923935
1762798094828248800,2.374248779296875,9.80399227142334,0.09212367236614227,-0.18544375896453857
1762798094830343700,2.37634375,9.794421195983887,0.10169496387243271,-0.18065811693668365
1762798094832473900,2.378473876953125,9.80399227142334,0.10169496387243271,-0.18065811693668365
1762798094834577700,2.38057763671875,9.794421195983887,0.10169496387243271,-0.18065811693668365
1762798094836691200,2.382691162109375,9.808777809143066,0.09212367236614227,-0.1902294009923935
1762798094838794800,2.384794677734375,9.81356430053711,0.09212367236614227,-0.18065811693668365
1762798094840900400,2.386900390625,9.808777809143066,0.10169496387243271,-0.18065811693668365
1762798094842996200,2.388996337890625,9.80399227142334,0.10648060590028763,-0.18065811693668365
1762798094845121000,2.39112109375,9.77109146118164,0.0729810893535614,-0.17587246000766754
1762798094847229700,2.393229736328125,9.78963565826416,0.09212367236614227,-0.18065811693668365
1762798094849346800,2.395346923828125,9.808777809143066,0.10169496387243271,-0.18065811693668365
1762798094851425500,2.397425537109375,9.808777809143066,0.09690931439399719,-0.1902294009923935
1762798094853542400,2.39954248046875,9.804591178894043,0.07776673883199692,-0.18544375896453857
1762798094855667000,2.4016669921875,9.784850120544434,0.09690931439399719,-0.18544375896453857
1762798094857761000,2.403760986328125,9.794421195983887,0.10169496387243271,-0.18544375896453857
1762798094859886300,2.40588623046875,9.799206733703613,0.09212367236614227,-0.18544375896453857
1762798094861988600,2.407988525390625,9.823135375976562,0.09690931439399719,-0.18065811693668365
1762798094864102100,2.41010205078125,9.808777809143066,0.10169496387243271,-0.19980068504810333
1762798094866202400,2.412202392578125,9.799206733703613,0.11605189740657806,-0.1950150430202484
1762798094868297200,2.414297119140625,9.78963565826416,0.10648060590028763,-0.1902294009923935
1762798094870424600,2.416424560546875,9.80399227142334,0.09690931439399719,-0.18544375896453857
1762798094872532200,2.4185322265625,9.81356430053711,0.10169496387243271,-0.1902294009923935
1762798094874646300,2.420646240234375,9.80399227142334,0.10648060590028763,-0.1950150430202484
1762798094876750600,2.42275048828125,9.78963565826416,0.08733802288770676,-0.19980068504810333
1762798094878859000,2.42485888671875,9.794421195983887,0.09690931439399719,-0.18544375896453857
1762798094880966700,2.426966552734375,9.78963565826416,0.09690931439399719,-0.17108681797981262
1762798094883075800,2.429075927734375,9.80399227142334,0.09212367236614227,-0.17108681797981262
1762798094885182200,2.43118212890625,9.80399227142334,0.09212367236614227,-0.16151553392410278
1762798094887282200,2.4332822265625,9.80937671661377,0.08255238085985184,-0.17587246000766754
1762798094889381400,2.43538134765625,9.799206733703613,0.09690931439399719,-0.15672987699508667
1762798094891493600,2.43749365234375,9.80399227142334,0.08733802288770676,-0.18544375896453857
1762798094893607400,2.439607421875,9.804591178894043,0.08255238085985184,-0.1663011759519577
1762798094895710700,2.441710693359375,9.80399227142334,0.09212367236614227,-0.1663011759519577
1762798094897839600,2.443839599609375,9.80399227142334,0.10169496387243271,-0.17108681797981262
1762798094899947000,2.445947021484375,9.80399227142334,0.09690931439399719,-0.18065811693668365
1762798094902058000,2.44805810546875,9.799206733703613,0.09690931439399719,-0.1950150430202484
1762798094904161800,2.450161865234375,9.80399227142334,0.11126625537872314,-0.1950150430202484
1762798094906269700,2.452269775390625,9.81356430053711,0.09690931439399719,-0.17587246000766754
1762798094908379400,2.45437939453125,9.799206733703613,0.10169496387243271,-0.1902294009923935
1762798094910488300,2.45648828125,9.799206733703613,0.09690931439399719,-0.19980068504810333
1762798094912596500,2.458596435546875,9.80399227142334,0.08255238085985184,-0.18544375896453857
1762798094914704000,2.460703857421875,9.808777809143066,0.09690931439399719,-0.1950150430202484
1762798094916811300,2.462811279296875,9.80399227142334,0.10169496387243271,-0.19980068504810333
1762798094918919400,2.46491943359375,9.808777809143066,0.08733802288770676,-0.18544375896453857
1762798094921028600,2.467028564453125,9.78963565826416,0.09690931439399719,-0.1902294009923935
1762798094923137300,2.46913720703125,9.81356430053711,0.09690931439399719,-0.18065811693668365
1762798094925243000,2.471242919921875,9.81356430053711,0.08733802288770676,-0.19980068504810333
1762798094927341000,2.473341064453125,9.799206733703613,0.09212367236614227,-0.1902294009923935
1762798094929462300,2.475462158203125,9.80399227142334,0.08733802288770676,-0.20937198400497437
1762798094931556600,2.477556640625,9.81356430053711,0.09690931439399719,-0.18544375896453857
1762798094933686500,2.4796865234375,9.78963565826416,0.09690931439399719,-0.17587246000766754
1762798094935789800,2.481789794921875,9.799206733703613,0.11126625537872314,-0.19980068504810333
1762798094937903900,2.48390380859375,9.808777809143066,0.08733802288770676,-0.18544375896453857
1762798094940007200,2.486007080078125,9.794421195983887,0.09212367236614227,-0.18065811693668365
1762798094942116900,2.488116943359375,9.78963565826416,0.09212367236614227,-0.18544375896453857
1762798094944225500,2.4902255859375,9.78963565826416,0.09690931439399719,-0.18065811693668365
1762798094946332000,2.492331787109375,9.80399227142334,0.09212367236614227,-0.18065811693668365
1762798094948426000,2.494426025390625,9.80399227142334,0.10169496387243271,-0.17108681797981262
1762798094950511400,2.496511474609375,9.81356430053711,0.09212367236614227,-0.18065811693668365
1762798094952631800,2.4986318359375,9.78963565826416,0.10169496387243271,-0.17587246000766754
1762798094954760400,2.500760498046875,9.80937671661377,0.07776673883199692,-0.17587246000766754
1762798094956867000,2.5028671875,9.78963565826416,0.10169496387243271,-0.18065811693668365
1762798094958975000,2.50497509765625,9.780662536621094,0.07776673883199692,-0.17108681797981262
1762798094961078800,2.507078857421875,9.784850120544434,0.10169496387243271,-0.18544375896453857
1762798094963189000,2.50918896484375,9.80399227142334,0.09212367236614227,-0.17587246000766754
1762798094965296600,2.511296630859375,9.780064582824707,0.09690931439399719,-0.19980068504810333
1762798094967406000,2.513406005859375,9.80399227142334,0.09690931439399719,-0.1902294009923935
1762798094969513700,2.515513671875,9.799206733703613,0.09212367236614227,-0.19980068504810333
1762798094971620000,2.5176201171875,9.80399227142334,0.09690931439399719,-0.18065811693668365
1762798094973717800,2.5197177734375,9.799206733703613,0.11126625537872314,-0.1950150430202484
1762798094975840500,2.521840576171875,9.808777809143066,0.08733802288770676,-0.1902294009923935
1762798094977947600,2.52394775390625,9.808777809143066,0.09690931439399719,-0.1950150430202484
1762798094980059600,2.5260595703125,9.80399227142334,0.10169496387243271,-0.18544375896453857
1762798094982165500,2.52816552734375,9.784850120544434,0.09690931439399719,-0.18544375896453857
1762798094984273000,2.53027294921875,9.808777809143066,0.09690931439399719,-0.19980068504810333
1762798094986369800,2.532369873046875,9.78963565826416,0.09690931439399719,-0.18065811693668365
1762798094988492300,2.5344921875,9.794421195983887,0.10169496387243271,-0.18544375896453857
1762798094990599200,2.53659912109375,9.78963565826416,0.10648060590028763,-0.1902294009923935
1762798094992712700,2.538712646484375,9.808777809143066,0.09212367236614227,-0.18065811693668365
1762798094994818300,2.540818359375,9.795019149780273,0.07776673883199692,-0.17587246000766754
1762798094996927500,2.542927490234375,9.794421195983887,0.10169496387243271,-0.17587246000766754
1762798094999034000,2.5450341796875,9.799206733703613,0.09690931439399719,-0.17587246000766754
1762798095001143300,2.547143310546875,9.799206733703613,0.09212367236614227,-0.18544375896453857
1762798095003247600,2.54924755859375,9.784850120544434,0.09690931439399719,-0.18065811693668365
1762798095005347800,2.551347900390625,9.78963565826416,0.09690931439399719,-0.18544375896453857
1762798095007468800,2.55346875,9.78963565826416,0.10648060590028763,-0.17587246000766754
1762798095009578200,2.555578125,9.78963565826416,0.10169496387243271,-0.18544375896453857
1762798095011690000,2.55768994140625,9.81356430053711,0.10169496387243271,-0.18544375896453857
1762798095013795000,2.559795166015625,9.808777809143066,0.09212367236614227,-0.18065811693668365
1762798095015903000,2.561903076171875,9.80399227142334,0.11126625537872314,-0.17587246000766754
1762798095018007800,2.5640078125,9.77527904510498,0.10169496387243271,-0.18065811693668365
1762798095020100400,2.566100341796875,9.784850120544434,0.10648060590028763,-0.1902294009923935
1762798095022213400,2.56821337890625,9.80937671661377,0.08255238085985184,-0.1663011759519577
1762798095024327000,2.570326904296875,9.799206733703613,0.09212367236614227,-0.18544375896453857
1762798095026462200,2.572462158203125,9.794421195983887,0.09690931439399719,-0.18065811693668365
1762798095028558800,2.574558837890625,9.799206733703613,0.09212367236614227,-0.1902294009923935
1762798095030667000,2.5766669921875,9.794421195983887,0.08733802288770676,-0.1902294009923935
1762798095032768800,2.578768798828125,9.78963565826416,0.09690931439399719,-0.19980068504810333
1762798095034880300,2.58088037109375,9.80399227142334,0.10169496387243271,-0.1902294009923935
1762798095036987100,2.582987060546875,9.794421195983887,0.09212367236614227,-0.1950150430202484
1762798095039097000,2.58509716796875,9.808777809143066,0.09690931439399719,-0.1950150430202484
1762798095041203000,2.587202880859375,9.78963565826416,0.09212367236614227,-0.1902294009923935
1762798095043300000,2.589300048828125,9.78963565826416,0.10169496387243271,-0.20458634197711945
1762798095045411600,2.59141162109375,9.799206733703613,0.09212367236614227,-0.1950150430202484
1762798095047533800,2.593533935546875,9.823135375976562,0.09212367236614227,-0.20458634197711945
1762798095049648600,2.595648681640625,9.80399227142334,0.09212367236614227,-0.1902294009923935
1762798095051752700,2.597752685546875,9.799206733703613,0.09212367236614227,-0.18065811693668365
1762798095053857500,2.599857421875,9.794421195983887,0.09690931439399719,-0.18544375896453857
1762798095055965700,2.601965576171875,9.80399227142334,0.09212367236614227,-0.18065811693668365
1762798095058074600,2.60407470703125,9.78963565826416,0.09690931439399719,-0.18544375896453857
1762798095060184600,2.6061845703125,9.799206733703613,0.09212367236614227,-0.18544375896453857
1762798095062293200,2.608293212890625,9.784850120544434,0.09690931439399719,-0.18544375896453857
1762798095064402200,2.610402099609375,9.794421195983887,0.09212367236614227,-0.1663011759519577
1762798095066508000,2.612508056640625,9.799206733703613,0.10169496387243271,-0.17587246000766754
1762798095068618200,2.6146181640625,9.80399227142334,0.09212367236614227,-0.18065811693668365
1762798095070726000,2.616725830078125,9.80399227142334,0.10169496387243271,-0.18544375896453857
1762798095072835800,2.6188359375,9.78963565826416,0.10169496387243271,-0.17108681797981262
1762798095074943200,2.620943115234375,9.80399227142334,0.09212367236614227,-0.18065811693668365
1762798095077050000,2.623050048828125,9.80399227142334,0.10169496387243271,-0.1950150430202484
1762798095079149800,2.62514990234375,9.78963565826416,0.09690931439399719,-0.1902294009923935
1762798095081266000,2.627265869140625,9.799206733703613,0.10648060590028763,-0.1950150430202484
1762798095083359000,2.62935888671875,9.80399227142334,0.10169496387243271,-0.17587246000766754
1762798095085480000,2.63147998046875,9.794421195983887,0.09690931439399719,-0.1902294009923935
1762798095087595000,2.633594970703125,9.80399227142334,0.08733802288770676,-0.17587246000766754
1762798095089708500,2.63570849609375,9.808777809143066,0.09690931439399719,-0.18065811693668365
1762798095091814700,2.637814697265625,9.780064582824707,0.10169496387243271,-0.1950150430202484
1762798095093921800,2.639921875,9.80399227142334,0.09212367236614227,-0.1902294009923935
1762798095096028000,2.64202783203125,9.795019149780273,0.07776673883199692,-0.17587246000766754
1762798095098128100,2.644128173828125,9.7998046875,0.08255238085985184,-0.18544375896453857
1762798095100246300,2.646246337890625,9.780064582824707,0.09212367236614227,-0.1950150430202484
1762798095102355700,2.648355712890625,9.78963565826416,0.09212367236614227,-0.19980068504810333
1762798095104466200,2.650466064453125,9.818349838256836,0.09690931439399719,-0.18065811693668365
1762798095106571500,2.652571533203125,9.81356430053711,0.10169496387243271,-0.18065811693668365
1762798095108679400,2.654679443359375,9.784850120544434,0.10169496387243271,-0.19980068504810333
1762798095110789400,2.656789306640625,9.799206733703613,0.11126625537872314,-0.20458634197711945
1762798095112899600,2.658899658203125,9.818349838256836,0.09212367236614227,-0.18544375896453857
1762798095115004700,2.661004638671875,9.808777809143066,0.10648060590028763,-0.1902294009923935
1762798095117102600,2.6631025390625,9.78963565826416,0.10648060590028763,-0.1902294009923935
1762798095119222000,2.665221923828125,9.780064582824707,0.10648060590028763,-0.1663011759519577
1762798095121322800,2.66732275390625,9.799206733703613,0.09690931439399719,-0.18065811693668365
1762798095123445000,2.669445068359375,9.80399227142334,0.09690931439399719,-0.17108681797981262
1762798095125549600,2.671549560546875,9.808777809143066,0.09212367236614227,-0.17108681797981262
1762798095127662000,2.673662109375,9.808777809143066,0.08733802288770676,-0.17108681797981262
1762798095129768200,2.675768310546875,9.784850120544434,0.09690931439399719,-0.17587246000766754
1762798095131877400,2.67787744140625,9.794421195983887,0.09690931439399719,-0.16151553392410278
1762798095133981000,2.67998095703125,9.770493507385254,0.10169496387243271,-0.18065811693668365
1762798095136081200,2.6820810546875,9.804591178894043,0.08255238085985184,-0.17587246000766754
1762798095138200800,2.684200927734375,9.808777809143066,0.09690931439399719,-0.18065811693668365
1762798095140310800,2.686310791015625,9.80399227142334,0.11126625537872314,-0.18065811693668365
1762798095142421500,2.68842138671875,9.799206733703613,0.09212367236614227,-0.1950150430202484
1762798095144534000,2.690533935546875,9.794421195983887,0.09690931439399719,-0.19980068504810333
1762798095146659300,2.692659423828125,9.80399227142334,0.11126625537872314,-0.20458634197711945
1762798095148746000,2.69474609375,9.80399227142334,0.10169496387243271,-0.1950150430202484
1762798095150862800,2.69686279296875,9.799206733703613,0.11126625537872314,-0.19980068504810333
1762798095152952800,2.698952880859375,9.81356430053711,0.10169496387243271,-0.1950150430202484
1762798095155071000,2.701071044921875,9.799206733703613,0.09690931439399719,-0.18544375896453857
1762798095157194000,2.703194091796875,9.77527904510498,0.10648060590028763,-0.1950150430202484
1762798095159305200,2.70530517578125,9.78963565826416,0.09212367236614227,-0.18544375896453857
1762798095161410600,2.70741064453125,9.80399227142334,0.10169496387243271,-0.17108681797981262
1762798095163499000,2.7094990234375,9.80399227142334,0.08733802288770676,-0.18065811693668365
1762798095165610800,2.71161083984375,9.784850120544434,0.08733802288770676,-0.18065811693668365
1762798095167733000,2.71373291015625,9.784850120544434,0.09212367236614227,-0.1950150430202484
1762798095169846300,2.71584619140625,9.784850120544434,0.09212367236614227,-0.1950150430202484
1762798095171954700,2.71795458984375,9.808777809143066,0.09690931439399719,-0.18544375896453857
1762798095174060800,2.720060791015625,9.808777809143066,0.10169496387243271,-0.18544375896453857
1762798095176170000,2.722169921875,9.80399227142334,0.09212367236614227,-0.17587246000766754
1762798095178275600,2.724275634765625,9.799206733703613,0.09212367236614227,-0.18544375896453857
1762798095180372000,2.7263720703125,9.794421195983887,0.11126625537872314,-0.17587246000766754
1762798095182491100,2.7284912109375,9.818349838256836,0.10169496387243271,-0.1950150430202484
1762798095184575700,2.73057568359375,9.794421195983887,0.08733802288770676,-0.19980068504810333
1762798095186680600,2.7326806640625,9.80399227142334,0.09690931439399719,-0.1902294009923935
1762798095188800300,2.73480029296875,9.799206733703613,0.09212367236614227,-0.17108681797981262
1762798095190919000,2.7369189453125,9.78963565826416,0.09212367236614227,-0.16151553392410278
1762798095193046500,2.739046630859375,9.80399227142334,0.09212367236614227,-0.17108681797981262
1762798095195156500,2.741156494140625,9.808777809143066,0.08733802288770676,-0.18065811693668365
